rt,button_pressed,type,trial_type,trial_index,time_elapsed,internal_node_id,workerId,userAgent,startTime,randCode,workerId2,hitId,assignmentID,endTime,completionTime,responses,question_order
20832.815,0,consent,html-button-response,0,20854,0.0-0.0,A2R0YYUAWNT7UD,"Mozilla/5.0 (Windows NT 10.0; Win64; x64) AppleWebKit/537.36 (KHTML, like Gecko) Chrome/79.0.3945.117 Safari/537.36",Fri Jan 24 2020 13:57:46 GMT-0500 (Eastern Standard Time),EH1091132869,A2R0YYUAWNT7UD,3N5YJ55YXI75KX5J07FEHLLQXVQANX,39JEC7537X58819KCE3YMH0D3AOVCT,Fri Jan 24 2020 14:01:29 GMT-0500 (Eastern Standard Time),222904,NA,NA
18052.24,0,instructions,html-button-response,1,38910,0.0-1.0,A2R0YYUAWNT7UD,"Mozilla/5.0 (Windows NT 10.0; Win64; x64) AppleWebKit/537.36 (KHTML, like Gecko) Chrome/79.0.3945.117 Safari/537.36",Fri Jan 24 2020 13:57:46 GMT-0500 (Eastern Standard Time),EH1091132869,A2R0YYUAWNT7UD,3N5YJ55YXI75KX5J07FEHLLQXVQANX,39JEC7537X58819KCE3YMH0D3AOVCT,Fri Jan 24 2020 14:01:29 GMT-0500 (Eastern Standard Time),222904,NA,NA
7064.115,NA,test_trial,survey-multi-choice,2,45977,0.0-2.0,A2R0YYUAWNT7UD,"Mozilla/5.0 (Windows NT 10.0; Win64; x64) AppleWebKit/537.36 (KHTML, like Gecko) Chrome/79.0.3945.117 Safari/537.36",Fri Jan 24 2020 13:57:46 GMT-0500 (Eastern Standard Time),EH1091132869,A2R0YYUAWNT7UD,3N5YJ55YXI75KX5J07FEHLLQXVQANX,39JEC7537X58819KCE3YMH0D3AOVCT,Fri Jan 24 2020 14:01:29 GMT-0500 (Eastern Standard Time),222904,"{""Test_ConditionName"":""exemplars10""}",[0]
6588.7,NA,test_trial,survey-multi-choice,3,52571,0.0-3.0,A2R0YYUAWNT7UD,"Mozilla/5.0 (Windows NT 10.0; Win64; x64) AppleWebKit/537.36 (KHTML, like Gecko) Chrome/79.0.3945.117 Safari/537.36",Fri Jan 24 2020 13:57:46 GMT-0500 (Eastern Standard Time),EH1091132869,A2R0YYUAWNT7UD,3N5YJ55YXI75KX5J07FEHLLQXVQANX,39JEC7537X58819KCE3YMH0D3AOVCT,Fri Jan 24 2020 14:01:29 GMT-0500 (Eastern Standard Time),222904,"{""Test_ConditionName"":""colors10""}",[0]
5608.545,NA,test_trial,survey-multi-choice,4,58185,0.0-4.0,A2R0YYUAWNT7UD,"Mozilla/5.0 (Windows NT 10.0; Win64; x64) AppleWebKit/537.36 (KHTML, like Gecko) Chrome/79.0.3945.117 Safari/537.36",Fri Jan 24 2020 13:57:46 GMT-0500 (Eastern Standard Time),EH1091132869,A2R0YYUAWNT7UD,3N5YJ55YXI75KX5J07FEHLLQXVQANX,39JEC7537X58819KCE3YMH0D3AOVCT,Fri Jan 24 2020 14:01:29 GMT-0500 (Eastern Standard Time),222904,"{""Test_ConditionName"":""exemplars10""}",[0]
6101.72,NA,test_trial,survey-multi-choice,5,64291,0.0-5.0,A2R0YYUAWNT7UD,"Mozilla/5.0 (Windows NT 10.0; Win64; x64) AppleWebKit/537.36 (KHTML, like Gecko) Chrome/79.0.3945.117 Safari/537.36",Fri Jan 24 2020 13:57:46 GMT-0500 (Eastern Standard Time),EH1091132869,A2R0YYUAWNT7UD,3N5YJ55YXI75KX5J07FEHLLQXVQANX,39JEC7537X58819KCE3YMH0D3AOVCT,Fri Jan 24 2020 14:01:29 GMT-0500 (Eastern Standard Time),222904,"{""Test_ConditionName"":""exemplars2""}",[0]
4772.155,NA,attentionCheck,survey-multi-choice,6,69067,0.0-6.0,A2R0YYUAWNT7UD,"Mozilla/5.0 (Windows NT 10.0; Win64; x64) AppleWebKit/537.36 (KHTML, like Gecko) Chrome/79.0.3945.117 Safari/537.36",Fri Jan 24 2020 13:57:46 GMT-0500 (Eastern Standard Time),EH1091132869,A2R0YYUAWNT7UD,3N5YJ55YXI75KX5J07FEHLLQXVQANX,39JEC7537X58819KCE3YMH0D3AOVCT,Fri Jan 24 2020 14:01:29 GMT-0500 (Eastern Standard Time),222904,"{""chair_AC"":""Computer1""}",[0]
3555.695,NA,test_trial,survey-multi-choice,7,72627,0.0-7.0,A2R0YYUAWNT7UD,"Mozilla/5.0 (Windows NT 10.0; Win64; x64) AppleWebKit/537.36 (KHTML, like Gecko) Chrome/79.0.3945.117 Safari/537.36",Fri Jan 24 2020 13:57:46 GMT-0500 (Eastern Standard Time),EH1091132869,A2R0YYUAWNT7UD,3N5YJ55YXI75KX5J07FEHLLQXVQANX,39JEC7537X58819KCE3YMH0D3AOVCT,Fri Jan 24 2020 14:01:29 GMT-0500 (Eastern Standard Time),222904,"{""Test_ConditionName"":""colors10""}",[0]
7931.26,NA,test_trial,survey-multi-choice,8,80562,0.0-8.0,A2R0YYUAWNT7UD,"Mozilla/5.0 (Windows NT 10.0; Win64; x64) AppleWebKit/537.36 (KHTML, like Gecko) Chrome/79.0.3945.117 Safari/537.36",Fri Jan 24 2020 13:57:46 GMT-0500 (Eastern Standard Time),EH1091132869,A2R0YYUAWNT7UD,3N5YJ55YXI75KX5J07FEHLLQXVQANX,39JEC7537X58819KCE3YMH0D3AOVCT,Fri Jan 24 2020 14:01:29 GMT-0500 (Eastern Standard Time),222904,"{""Test_ConditionName"":""exemplars2""}",[0]
4735.865,NA,test_trial,survey-multi-choice,9,85303,0.0-9.0,A2R0YYUAWNT7UD,"Mozilla/5.0 (Windows NT 10.0; Win64; x64) AppleWebKit/537.36 (KHTML, like Gecko) Chrome/79.0.3945.117 Safari/537.36",Fri Jan 24 2020 13:57:46 GMT-0500 (Eastern Standard Time),EH1091132869,A2R0YYUAWNT7UD,3N5YJ55YXI75KX5J07FEHLLQXVQANX,39JEC7537X58819KCE3YMH0D3AOVCT,Fri Jan 24 2020 14:01:29 GMT-0500 (Eastern Standard Time),222904,"{""Test_ConditionName"":""exemplars10""}",[0]
3082.16,NA,test_trial,survey-multi-choice,10,88391,0.0-10.0,A2R0YYUAWNT7UD,"Mozilla/5.0 (Windows NT 10.0; Win64; x64) AppleWebKit/537.36 (KHTML, like Gecko) Chrome/79.0.3945.117 Safari/537.36",Fri Jan 24 2020 13:57:46 GMT-0500 (Eastern Standard Time),EH1091132869,A2R0YYUAWNT7UD,3N5YJ55YXI75KX5J07FEHLLQXVQANX,39JEC7537X58819KCE3YMH0D3AOVCT,Fri Jan 24 2020 14:01:29 GMT-0500 (Eastern Standard Time),222904,"{""Test_ConditionName"":""exemplars10""}",[0]
6490.095,NA,attentionCheck,survey-multi-choice,11,94885,0.0-11.0,A2R0YYUAWNT7UD,"Mozilla/5.0 (Windows NT 10.0; Win64; x64) AppleWebKit/537.36 (KHTML, like Gecko) Chrome/79.0.3945.117 Safari/537.36",Fri Jan 24 2020 13:57:46 GMT-0500 (Eastern Standard Time),EH1091132869,A2R0YYUAWNT7UD,3N5YJ55YXI75KX5J07FEHLLQXVQANX,39JEC7537X58819KCE3YMH0D3AOVCT,Fri Jan 24 2020 14:01:29 GMT-0500 (Eastern Standard Time),222904,"{""shirt_AC"":""Sweater_Yellow""}",[0]
7039.83,NA,test_trial,survey-multi-choice,12,101929,0.0-12.0,A2R0YYUAWNT7UD,"Mozilla/5.0 (Windows NT 10.0; Win64; x64) AppleWebKit/537.36 (KHTML, like Gecko) Chrome/79.0.3945.117 Safari/537.36",Fri Jan 24 2020 13:57:46 GMT-0500 (Eastern Standard Time),EH1091132869,A2R0YYUAWNT7UD,3N5YJ55YXI75KX5J07FEHLLQXVQANX,39JEC7537X58819KCE3YMH0D3AOVCT,Fri Jan 24 2020 14:01:29 GMT-0500 (Eastern Standard Time),222904,"{""Test_ConditionName"":""exemplars2""}",[0]
4129.015,NA,test_trial,survey-multi-choice,13,106063,0.0-13.0,A2R0YYUAWNT7UD,"Mozilla/5.0 (Windows NT 10.0; Win64; x64) AppleWebKit/537.36 (KHTML, like Gecko) Chrome/79.0.3945.117 Safari/537.36",Fri Jan 24 2020 13:57:46 GMT-0500 (Eastern Standard Time),EH1091132869,A2R0YYUAWNT7UD,3N5YJ55YXI75KX5J07FEHLLQXVQANX,39JEC7537X58819KCE3YMH0D3AOVCT,Fri Jan 24 2020 14:01:29 GMT-0500 (Eastern Standard Time),222904,"{""Test_ConditionName"":""exemplars10""}",[0]
5091.575,NA,test_trial,survey-multi-choice,14,111159,0.0-14.0,A2R0YYUAWNT7UD,"Mozilla/5.0 (Windows NT 10.0; Win64; x64) AppleWebKit/537.36 (KHTML, like Gecko) Chrome/79.0.3945.117 Safari/537.36",Fri Jan 24 2020 13:57:46 GMT-0500 (Eastern Standard Time),EH1091132869,A2R0YYUAWNT7UD,3N5YJ55YXI75KX5J07FEHLLQXVQANX,39JEC7537X58819KCE3YMH0D3AOVCT,Fri Jan 24 2020 14:01:29 GMT-0500 (Eastern Standard Time),222904,"{""Test_ConditionName"":""colors10""}",[0]
6607.29,NA,test_trial,survey-multi-choice,15,117771,0.0-15.0,A2R0YYUAWNT7UD,"Mozilla/5.0 (Windows NT 10.0; Win64; x64) AppleWebKit/537.36 (KHTML, like Gecko) Chrome/79.0.3945.117 Safari/537.36",Fri Jan 24 2020 13:57:46 GMT-0500 (Eastern Standard Time),EH1091132869,A2R0YYUAWNT7UD,3N5YJ55YXI75KX5J07FEHLLQXVQANX,39JEC7537X58819KCE3YMH0D3AOVCT,Fri Jan 24 2020 14:01:29 GMT-0500 (Eastern Standard Time),222904,"{""Test_ConditionName"":""exemplars10""}",[0]
3249.38,NA,attentionCheck,survey-multi-choice,16,121025,0.0-16.0,A2R0YYUAWNT7UD,"Mozilla/5.0 (Windows NT 10.0; Win64; x64) AppleWebKit/537.36 (KHTML, like Gecko) Chrome/79.0.3945.117 Safari/537.36",Fri Jan 24 2020 13:57:46 GMT-0500 (Eastern Standard Time),EH1091132869,A2R0YYUAWNT7UD,3N5YJ55YXI75KX5J07FEHLLQXVQANX,39JEC7537X58819KCE3YMH0D3AOVCT,Fri Jan 24 2020 14:01:29 GMT-0500 (Eastern Standard Time),222904,"{""writing_AC"":""Pencil4""}",[0]
7117.465,NA,test_trial,survey-multi-choice,17,128147,0.0-17.0,A2R0YYUAWNT7UD,"Mozilla/5.0 (Windows NT 10.0; Win64; x64) AppleWebKit/537.36 (KHTML, like Gecko) Chrome/79.0.3945.117 Safari/537.36",Fri Jan 24 2020 13:57:46 GMT-0500 (Eastern Standard Time),EH1091132869,A2R0YYUAWNT7UD,3N5YJ55YXI75KX5J07FEHLLQXVQANX,39JEC7537X58819KCE3YMH0D3AOVCT,Fri Jan 24 2020 14:01:29 GMT-0500 (Eastern Standard Time),222904,"{""Test_ConditionName"":""exemplars10""}",[0]
10839.49,NA,test_trial,survey-multi-choice,18,138991,0.0-18.0,A2R0YYUAWNT7UD,"Mozilla/5.0 (Windows NT 10.0; Win64; x64) AppleWebKit/537.36 (KHTML, like Gecko) Chrome/79.0.3945.117 Safari/537.36",Fri Jan 24 2020 13:57:46 GMT-0500 (Eastern Standard Time),EH1091132869,A2R0YYUAWNT7UD,3N5YJ55YXI75KX5J07FEHLLQXVQANX,39JEC7537X58819KCE3YMH0D3AOVCT,Fri Jan 24 2020 14:01:29 GMT-0500 (Eastern Standard Time),222904,"{""Test_ConditionName"":""exemplars2""}",[0]
5447.42,NA,test_trial,survey-multi-choice,19,144443,0.0-19.0,A2R0YYUAWNT7UD,"Mozilla/5.0 (Windows NT 10.0; Win64; x64) AppleWebKit/537.36 (KHTML, like Gecko) Chrome/79.0.3945.117 Safari/537.36",Fri Jan 24 2020 13:57:46 GMT-0500 (Eastern Standard Time),EH1091132869,A2R0YYUAWNT7UD,3N5YJ55YXI75KX5J07FEHLLQXVQANX,39JEC7537X58819KCE3YMH0D3AOVCT,Fri Jan 24 2020 14:01:29 GMT-0500 (Eastern Standard Time),222904,"{""Test_ConditionName"":""colors10""}",[0]
4826.715,NA,test_trial,survey-multi-choice,20,149275,0.0-20.0,A2R0YYUAWNT7UD,"Mozilla/5.0 (Windows NT 10.0; Win64; x64) AppleWebKit/537.36 (KHTML, like Gecko) Chrome/79.0.3945.117 Safari/537.36",Fri Jan 24 2020 13:57:46 GMT-0500 (Eastern Standard Time),EH1091132869,A2R0YYUAWNT7UD,3N5YJ55YXI75KX5J07FEHLLQXVQANX,39JEC7537X58819KCE3YMH0D3AOVCT,Fri Jan 24 2020 14:01:29 GMT-0500 (Eastern Standard Time),222904,"{""Test_ConditionName"":""exemplars10""}",[0]
2144.06,NA,attentionCheck,survey-multi-choice,21,151423,0.0-21.0,A2R0YYUAWNT7UD,"Mozilla/5.0 (Windows NT 10.0; Win64; x64) AppleWebKit/537.36 (KHTML, like Gecko) Chrome/79.0.3945.117 Safari/537.36",Fri Jan 24 2020 13:57:46 GMT-0500 (Eastern Standard Time),EH1091132869,A2R0YYUAWNT7UD,3N5YJ55YXI75KX5J07FEHLLQXVQANX,39JEC7537X58819KCE3YMH0D3AOVCT,Fri Jan 24 2020 14:01:29 GMT-0500 (Eastern Standard Time),222904,"{""hat_AC"":""Baseball_Black""}",[0]
11341.175,NA,demographics,survey-multi-choice,22,162770,0.0-22.0,A2R0YYUAWNT7UD,"Mozilla/5.0 (Windows NT 10.0; Win64; x64) AppleWebKit/537.36 (KHTML, like Gecko) Chrome/79.0.3945.117 Safari/537.36",Fri Jan 24 2020 13:57:46 GMT-0500 (Eastern Standard Time),EH1091132869,A2R0YYUAWNT7UD,3N5YJ55YXI75KX5J07FEHLLQXVQANX,39JEC7537X58819KCE3YMH0D3AOVCT,Fri Jan 24 2020 14:01:29 GMT-0500 (Eastern Standard Time),222904,"{""Demo_Colorblind"":""Not-Colorblind"",""Demo_Gender"":""Male"",""Demo_Race"":""White"",""Demo_Hispanic"":""Not-Hispanic""}","[0,1,2,3]"
60123.43,NA,demographics,survey-text,23,222899,0.0-23.0,A2R0YYUAWNT7UD,"Mozilla/5.0 (Windows NT 10.0; Win64; x64) AppleWebKit/537.36 (KHTML, like Gecko) Chrome/79.0.3945.117 Safari/537.36",Fri Jan 24 2020 13:57:46 GMT-0500 (Eastern Standard Time),EH1091132869,A2R0YYUAWNT7UD,3N5YJ55YXI75KX5J07FEHLLQXVQANX,39JEC7537X58819KCE3YMH0D3AOVCT,Fri Jan 24 2020 14:01:29 GMT-0500 (Eastern Standard Time),222904,"{""Age"":""28"",""ParticipationSummary"":""I saw pictures of hats, writing utensils, clothes, and chairs. I had to choose which would tell me more about someone"",""MotivationGuess"":""Something about how I infer things"",""TechnicalIssues"":""no""}",NA
2194.425,0,consent,html-button-response,0,2248,0.0-0.0,A2MSVKXC1F3WIU,"Mozilla/5.0 (X11; CrOS x86_64 12607.81.0) AppleWebKit/537.36 (KHTML, like Gecko) Chrome/79.0.3945.119 Safari/537.36",Fri Jan 24 2020 19:06:22 GMT-0500 (Eastern Standard Time),EH1151124669,A2MSVKXC1F3WIU,302OLP89D1BMTT8SBH601AREYS5CAC,37Q970SNZHC8T6II2M99UYXF0BPS1L,Fri Jan 24 2020 19:11:39 GMT-0500 (Eastern Standard Time),316646,NA,NA
10003.85,0,instructions,html-button-response,1,12261,0.0-1.0,A2MSVKXC1F3WIU,"Mozilla/5.0 (X11; CrOS x86_64 12607.81.0) AppleWebKit/537.36 (KHTML, like Gecko) Chrome/79.0.3945.119 Safari/537.36",Fri Jan 24 2020 19:06:22 GMT-0500 (Eastern Standard Time),EH1151124669,A2MSVKXC1F3WIU,302OLP89D1BMTT8SBH601AREYS5CAC,37Q970SNZHC8T6II2M99UYXF0BPS1L,Fri Jan 24 2020 19:11:39 GMT-0500 (Eastern Standard Time),316646,NA,NA
9530.105,NA,test_trial,survey-multi-choice,2,21799,0.0-2.0,A2MSVKXC1F3WIU,"Mozilla/5.0 (X11; CrOS x86_64 12607.81.0) AppleWebKit/537.36 (KHTML, like Gecko) Chrome/79.0.3945.119 Safari/537.36",Fri Jan 24 2020 19:06:22 GMT-0500 (Eastern Standard Time),EH1151124669,A2MSVKXC1F3WIU,302OLP89D1BMTT8SBH601AREYS5CAC,37Q970SNZHC8T6II2M99UYXF0BPS1L,Fri Jan 24 2020 19:11:39 GMT-0500 (Eastern Standard Time),316646,"{""Test_ConditionName"":""exemplars10""}",[0]
42723.46,NA,test_trial,survey-multi-choice,3,64535,0.0-3.0,A2MSVKXC1F3WIU,"Mozilla/5.0 (X11; CrOS x86_64 12607.81.0) AppleWebKit/537.36 (KHTML, like Gecko) Chrome/79.0.3945.119 Safari/537.36",Fri Jan 24 2020 19:06:22 GMT-0500 (Eastern Standard Time),EH1151124669,A2MSVKXC1F3WIU,302OLP89D1BMTT8SBH601AREYS5CAC,37Q970SNZHC8T6II2M99UYXF0BPS1L,Fri Jan 24 2020 19:11:39 GMT-0500 (Eastern Standard Time),316646,"{""Test_ConditionName"":""colors10""}",[0]
3950.37,NA,test_trial,survey-multi-choice,4,68494,0.0-4.0,A2MSVKXC1F3WIU,"Mozilla/5.0 (X11; CrOS x86_64 12607.81.0) AppleWebKit/537.36 (KHTML, like Gecko) Chrome/79.0.3945.119 Safari/537.36",Fri Jan 24 2020 19:06:22 GMT-0500 (Eastern Standard Time),EH1151124669,A2MSVKXC1F3WIU,302OLP89D1BMTT8SBH601AREYS5CAC,37Q970SNZHC8T6II2M99UYXF0BPS1L,Fri Jan 24 2020 19:11:39 GMT-0500 (Eastern Standard Time),316646,"{""Test_ConditionName"":""exemplars2""}",[0]
26367.25,NA,test_trial,survey-multi-choice,5,94871,0.0-5.0,A2MSVKXC1F3WIU,"Mozilla/5.0 (X11; CrOS x86_64 12607.81.0) AppleWebKit/537.36 (KHTML, like Gecko) Chrome/79.0.3945.119 Safari/537.36",Fri Jan 24 2020 19:06:22 GMT-0500 (Eastern Standard Time),EH1151124669,A2MSVKXC1F3WIU,302OLP89D1BMTT8SBH601AREYS5CAC,37Q970SNZHC8T6II2M99UYXF0BPS1L,Fri Jan 24 2020 19:11:39 GMT-0500 (Eastern Standard Time),316646,"{""Test_ConditionName"":""exemplars10""}",[0]
2830.91,NA,attentionCheck,survey-multi-choice,6,97711,0.0-6.0,A2MSVKXC1F3WIU,"Mozilla/5.0 (X11; CrOS x86_64 12607.81.0) AppleWebKit/537.36 (KHTML, like Gecko) Chrome/79.0.3945.119 Safari/537.36",Fri Jan 24 2020 19:06:22 GMT-0500 (Eastern Standard Time),EH1151124669,A2MSVKXC1F3WIU,302OLP89D1BMTT8SBH601AREYS5CAC,37Q970SNZHC8T6II2M99UYXF0BPS1L,Fri Jan 24 2020 19:11:39 GMT-0500 (Eastern Standard Time),316646,"{""chair_AC"":""Chair_Orange""}",[0]
27442.135,NA,test_trial,survey-multi-choice,7,125171,0.0-7.0,A2MSVKXC1F3WIU,"Mozilla/5.0 (X11; CrOS x86_64 12607.81.0) AppleWebKit/537.36 (KHTML, like Gecko) Chrome/79.0.3945.119 Safari/537.36",Fri Jan 24 2020 19:06:22 GMT-0500 (Eastern Standard Time),EH1151124669,A2MSVKXC1F3WIU,302OLP89D1BMTT8SBH601AREYS5CAC,37Q970SNZHC8T6II2M99UYXF0BPS1L,Fri Jan 24 2020 19:11:39 GMT-0500 (Eastern Standard Time),316646,"{""Test_ConditionName"":""exemplars10""}",[0]
4459.315,NA,test_trial,survey-multi-choice,8,129649,0.0-8.0,A2MSVKXC1F3WIU,"Mozilla/5.0 (X11; CrOS x86_64 12607.81.0) AppleWebKit/537.36 (KHTML, like Gecko) Chrome/79.0.3945.119 Safari/537.36",Fri Jan 24 2020 19:06:22 GMT-0500 (Eastern Standard Time),EH1151124669,A2MSVKXC1F3WIU,302OLP89D1BMTT8SBH601AREYS5CAC,37Q970SNZHC8T6II2M99UYXF0BPS1L,Fri Jan 24 2020 19:11:39 GMT-0500 (Eastern Standard Time),316646,"{""Test_ConditionName"":""exemplars10""}",[0]
4694.745,NA,test_trial,survey-multi-choice,9,134354,0.0-9.0,A2MSVKXC1F3WIU,"Mozilla/5.0 (X11; CrOS x86_64 12607.81.0) AppleWebKit/537.36 (KHTML, like Gecko) Chrome/79.0.3945.119 Safari/537.36",Fri Jan 24 2020 19:06:22 GMT-0500 (Eastern Standard Time),EH1151124669,A2MSVKXC1F3WIU,302OLP89D1BMTT8SBH601AREYS5CAC,37Q970SNZHC8T6II2M99UYXF0BPS1L,Fri Jan 24 2020 19:11:39 GMT-0500 (Eastern Standard Time),316646,"{""Test_ConditionName"":""colors10""}",[0]
2812.675,NA,test_trial,survey-multi-choice,10,137177,0.0-10.0,A2MSVKXC1F3WIU,"Mozilla/5.0 (X11; CrOS x86_64 12607.81.0) AppleWebKit/537.36 (KHTML, like Gecko) Chrome/79.0.3945.119 Safari/537.36",Fri Jan 24 2020 19:06:22 GMT-0500 (Eastern Standard Time),EH1151124669,A2MSVKXC1F3WIU,302OLP89D1BMTT8SBH601AREYS5CAC,37Q970SNZHC8T6II2M99UYXF0BPS1L,Fri Jan 24 2020 19:11:39 GMT-0500 (Eastern Standard Time),316646,"{""Test_ConditionName"":""exemplars2""}",[0]
3285.17,NA,attentionCheck,survey-multi-choice,11,140469,0.0-11.0,A2MSVKXC1F3WIU,"Mozilla/5.0 (X11; CrOS x86_64 12607.81.0) AppleWebKit/537.36 (KHTML, like Gecko) Chrome/79.0.3945.119 Safari/537.36",Fri Jan 24 2020 19:06:22 GMT-0500 (Eastern Standard Time),EH1151124669,A2MSVKXC1F3WIU,302OLP89D1BMTT8SBH601AREYS5CAC,37Q970SNZHC8T6II2M99UYXF0BPS1L,Fri Jan 24 2020 19:11:39 GMT-0500 (Eastern Standard Time),316646,"{""shirt_AC"":""Sweater_Purple""}",[0]
20198.465,NA,test_trial,survey-multi-choice,12,160676,0.0-12.0,A2MSVKXC1F3WIU,"Mozilla/5.0 (X11; CrOS x86_64 12607.81.0) AppleWebKit/537.36 (KHTML, like Gecko) Chrome/79.0.3945.119 Safari/537.36",Fri Jan 24 2020 19:06:22 GMT-0500 (Eastern Standard Time),EH1151124669,A2MSVKXC1F3WIU,302OLP89D1BMTT8SBH601AREYS5CAC,37Q970SNZHC8T6II2M99UYXF0BPS1L,Fri Jan 24 2020 19:11:39 GMT-0500 (Eastern Standard Time),316646,"{""Test_ConditionName"":""exemplars10""}",[0]
9940.815,NA,test_trial,survey-multi-choice,13,170626,0.0-13.0,A2MSVKXC1F3WIU,"Mozilla/5.0 (X11; CrOS x86_64 12607.81.0) AppleWebKit/537.36 (KHTML, like Gecko) Chrome/79.0.3945.119 Safari/537.36",Fri Jan 24 2020 19:06:22 GMT-0500 (Eastern Standard Time),EH1151124669,A2MSVKXC1F3WIU,302OLP89D1BMTT8SBH601AREYS5CAC,37Q970SNZHC8T6II2M99UYXF0BPS1L,Fri Jan 24 2020 19:11:39 GMT-0500 (Eastern Standard Time),316646,"{""Test_ConditionName"":""exemplars2""}",[0]
4678.71,NA,test_trial,survey-multi-choice,14,175315,0.0-14.0,A2MSVKXC1F3WIU,"Mozilla/5.0 (X11; CrOS x86_64 12607.81.0) AppleWebKit/537.36 (KHTML, like Gecko) Chrome/79.0.3945.119 Safari/537.36",Fri Jan 24 2020 19:06:22 GMT-0500 (Eastern Standard Time),EH1151124669,A2MSVKXC1F3WIU,302OLP89D1BMTT8SBH601AREYS5CAC,37Q970SNZHC8T6II2M99UYXF0BPS1L,Fri Jan 24 2020 19:11:39 GMT-0500 (Eastern Standard Time),316646,"{""Test_ConditionName"":""exemplars10""}",[0]
3460.39,NA,test_trial,survey-multi-choice,15,178786,0.0-15.0,A2MSVKXC1F3WIU,"Mozilla/5.0 (X11; CrOS x86_64 12607.81.0) AppleWebKit/537.36 (KHTML, like Gecko) Chrome/79.0.3945.119 Safari/537.36",Fri Jan 24 2020 19:06:22 GMT-0500 (Eastern Standard Time),EH1151124669,A2MSVKXC1F3WIU,302OLP89D1BMTT8SBH601AREYS5CAC,37Q970SNZHC8T6II2M99UYXF0BPS1L,Fri Jan 24 2020 19:11:39 GMT-0500 (Eastern Standard Time),316646,"{""Test_ConditionName"":""colors10""}",[0]
3225.48,NA,attentionCheck,survey-multi-choice,16,182019,0.0-16.0,A2MSVKXC1F3WIU,"Mozilla/5.0 (X11; CrOS x86_64 12607.81.0) AppleWebKit/537.36 (KHTML, like Gecko) Chrome/79.0.3945.119 Safari/537.36",Fri Jan 24 2020 19:06:22 GMT-0500 (Eastern Standard Time),EH1151124669,A2MSVKXC1F3WIU,302OLP89D1BMTT8SBH601AREYS5CAC,37Q970SNZHC8T6II2M99UYXF0BPS1L,Fri Jan 24 2020 19:11:39 GMT-0500 (Eastern Standard Time),316646,"{""writing_AC"":""Pen_Fountain_Blue""}",[0]
40882.15,NA,test_trial,survey-multi-choice,17,222913,0.0-17.0,A2MSVKXC1F3WIU,"Mozilla/5.0 (X11; CrOS x86_64 12607.81.0) AppleWebKit/537.36 (KHTML, like Gecko) Chrome/79.0.3945.119 Safari/537.36",Fri Jan 24 2020 19:06:22 GMT-0500 (Eastern Standard Time),EH1151124669,A2MSVKXC1F3WIU,302OLP89D1BMTT8SBH601AREYS5CAC,37Q970SNZHC8T6II2M99UYXF0BPS1L,Fri Jan 24 2020 19:11:39 GMT-0500 (Eastern Standard Time),316646,"{""Test_ConditionName"":""exemplars10""}",[0]
3057.335,NA,test_trial,survey-multi-choice,18,225980,0.0-18.0,A2MSVKXC1F3WIU,"Mozilla/5.0 (X11; CrOS x86_64 12607.81.0) AppleWebKit/537.36 (KHTML, like Gecko) Chrome/79.0.3945.119 Safari/537.36",Fri Jan 24 2020 19:06:22 GMT-0500 (Eastern Standard Time),EH1151124669,A2MSVKXC1F3WIU,302OLP89D1BMTT8SBH601AREYS5CAC,37Q970SNZHC8T6II2M99UYXF0BPS1L,Fri Jan 24 2020 19:11:39 GMT-0500 (Eastern Standard Time),316646,"{""Test_ConditionName"":""exemplars10""}",[0]
2743.2,NA,test_trial,survey-multi-choice,19,228731,0.0-19.0,A2MSVKXC1F3WIU,"Mozilla/5.0 (X11; CrOS x86_64 12607.81.0) AppleWebKit/537.36 (KHTML, like Gecko) Chrome/79.0.3945.119 Safari/537.36",Fri Jan 24 2020 19:06:22 GMT-0500 (Eastern Standard Time),EH1151124669,A2MSVKXC1F3WIU,302OLP89D1BMTT8SBH601AREYS5CAC,37Q970SNZHC8T6II2M99UYXF0BPS1L,Fri Jan 24 2020 19:11:39 GMT-0500 (Eastern Standard Time),316646,"{""Test_ConditionName"":""exemplars2""}",[0]
3529.155,NA,test_trial,survey-multi-choice,20,232268,0.0-20.0,A2MSVKXC1F3WIU,"Mozilla/5.0 (X11; CrOS x86_64 12607.81.0) AppleWebKit/537.36 (KHTML, like Gecko) Chrome/79.0.3945.119 Safari/537.36",Fri Jan 24 2020 19:06:22 GMT-0500 (Eastern Standard Time),EH1151124669,A2MSVKXC1F3WIU,302OLP89D1BMTT8SBH601AREYS5CAC,37Q970SNZHC8T6II2M99UYXF0BPS1L,Fri Jan 24 2020 19:11:39 GMT-0500 (Eastern Standard Time),316646,"{""Test_ConditionName"":""colors10""}",[0]
3113.85,NA,attentionCheck,survey-multi-choice,21,235389,0.0-21.0,A2MSVKXC1F3WIU,"Mozilla/5.0 (X11; CrOS x86_64 12607.81.0) AppleWebKit/537.36 (KHTML, like Gecko) Chrome/79.0.3945.119 Safari/537.36",Fri Jan 24 2020 19:06:22 GMT-0500 (Eastern Standard Time),EH1151124669,A2MSVKXC1F3WIU,302OLP89D1BMTT8SBH601AREYS5CAC,37Q970SNZHC8T6II2M99UYXF0BPS1L,Fri Jan 24 2020 19:11:39 GMT-0500 (Eastern Standard Time),316646,"{""hat_AC"":""Boat""}",[0]
18962.395,NA,demographics,survey-multi-choice,22,254364,0.0-22.0,A2MSVKXC1F3WIU,"Mozilla/5.0 (X11; CrOS x86_64 12607.81.0) AppleWebKit/537.36 (KHTML, like Gecko) Chrome/79.0.3945.119 Safari/537.36",Fri Jan 24 2020 19:06:22 GMT-0500 (Eastern Standard Time),EH1151124669,A2MSVKXC1F3WIU,302OLP89D1BMTT8SBH601AREYS5CAC,37Q970SNZHC8T6II2M99UYXF0BPS1L,Fri Jan 24 2020 19:11:39 GMT-0500 (Eastern Standard Time),316646,"{""Demo_Colorblind"":""Not-Colorblind"",""Demo_Gender"":""Female"",""Demo_Race"":""Multi"",""Demo_Hispanic"":""Not-Hispanic""}","[0,1,2,3]"
62234.92,NA,demographics,survey-text,23,316624,0.0-23.0,A2MSVKXC1F3WIU,"Mozilla/5.0 (X11; CrOS x86_64 12607.81.0) AppleWebKit/537.36 (KHTML, like Gecko) Chrome/79.0.3945.119 Safari/537.36",Fri Jan 24 2020 19:06:22 GMT-0500 (Eastern Standard Time),EH1151124669,A2MSVKXC1F3WIU,302OLP89D1BMTT8SBH601AREYS5CAC,37Q970SNZHC8T6II2M99UYXF0BPS1L,Fri Jan 24 2020 19:11:39 GMT-0500 (Eastern Standard Time),316646,"{""Age"":""41"",""ParticipationSummary"":""I looked at different groups of items on cards. I then chose, out of sets of two, which card showed me more about the type of person someone could be. "",""MotivationGuess"":""Training artificial intelligence?"",""TechnicalIssues"":""No none""}",NA
29228,0,consent,html-button-response,0,29385,0.0-0.0,A22MLUGAGF4S73,"Mozilla/5.0 (Windows NT 6.3; Win64; x64) AppleWebKit/537.36 (KHTML, like Gecko) Chrome/79.0.3945.117 Safari/537.36",Fri Jan 24 2020 10:33:57 GMT-0800 (Pacific Standard Time),EH131116869,A22MLUGAGF4S73,3N5YJ55YXI75KX5J07FEHLLQXVQANX,3L2IS5HSFDMRMQHBWE2766S6O7TNUE,Fri Jan 24 2020 10:38:09 GMT-0800 (Pacific Standard Time),252348,NA,NA
10801,0,instructions,html-button-response,1,40213,0.0-1.0,A22MLUGAGF4S73,"Mozilla/5.0 (Windows NT 6.3; Win64; x64) AppleWebKit/537.36 (KHTML, like Gecko) Chrome/79.0.3945.117 Safari/537.36",Fri Jan 24 2020 10:33:57 GMT-0800 (Pacific Standard Time),EH131116869,A22MLUGAGF4S73,3N5YJ55YXI75KX5J07FEHLLQXVQANX,3L2IS5HSFDMRMQHBWE2766S6O7TNUE,Fri Jan 24 2020 10:38:09 GMT-0800 (Pacific Standard Time),252348,NA,NA
11075,NA,test_trial,survey-multi-choice,2,51310,0.0-2.0,A22MLUGAGF4S73,"Mozilla/5.0 (Windows NT 6.3; Win64; x64) AppleWebKit/537.36 (KHTML, like Gecko) Chrome/79.0.3945.117 Safari/537.36",Fri Jan 24 2020 10:33:57 GMT-0800 (Pacific Standard Time),EH131116869,A22MLUGAGF4S73,3N5YJ55YXI75KX5J07FEHLLQXVQANX,3L2IS5HSFDMRMQHBWE2766S6O7TNUE,Fri Jan 24 2020 10:38:09 GMT-0800 (Pacific Standard Time),252348,"{""Test_ConditionName"":""colors10""}",[0]
4626,NA,test_trial,survey-multi-choice,3,55945,0.0-3.0,A22MLUGAGF4S73,"Mozilla/5.0 (Windows NT 6.3; Win64; x64) AppleWebKit/537.36 (KHTML, like Gecko) Chrome/79.0.3945.117 Safari/537.36",Fri Jan 24 2020 10:33:57 GMT-0800 (Pacific Standard Time),EH131116869,A22MLUGAGF4S73,3N5YJ55YXI75KX5J07FEHLLQXVQANX,3L2IS5HSFDMRMQHBWE2766S6O7TNUE,Fri Jan 24 2020 10:38:09 GMT-0800 (Pacific Standard Time),252348,"{""Test_ConditionName"":""colors2""}",[0]
5463,NA,test_trial,survey-multi-choice,4,61430,0.0-4.0,A22MLUGAGF4S73,"Mozilla/5.0 (Windows NT 6.3; Win64; x64) AppleWebKit/537.36 (KHTML, like Gecko) Chrome/79.0.3945.117 Safari/537.36",Fri Jan 24 2020 10:33:57 GMT-0800 (Pacific Standard Time),EH131116869,A22MLUGAGF4S73,3N5YJ55YXI75KX5J07FEHLLQXVQANX,3L2IS5HSFDMRMQHBWE2766S6O7TNUE,Fri Jan 24 2020 10:38:09 GMT-0800 (Pacific Standard Time),252348,"{""Test_ConditionName"":""exemplars10""}",[0]
5239,NA,test_trial,survey-multi-choice,5,66673,0.0-5.0,A22MLUGAGF4S73,"Mozilla/5.0 (Windows NT 6.3; Win64; x64) AppleWebKit/537.36 (KHTML, like Gecko) Chrome/79.0.3945.117 Safari/537.36",Fri Jan 24 2020 10:33:57 GMT-0800 (Pacific Standard Time),EH131116869,A22MLUGAGF4S73,3N5YJ55YXI75KX5J07FEHLLQXVQANX,3L2IS5HSFDMRMQHBWE2766S6O7TNUE,Fri Jan 24 2020 10:38:09 GMT-0800 (Pacific Standard Time),252348,"{""Test_ConditionName"":""colors2""}",[0]
5202,NA,attentionCheck,survey-multi-choice,6,71879,0.0-6.0,A22MLUGAGF4S73,"Mozilla/5.0 (Windows NT 6.3; Win64; x64) AppleWebKit/537.36 (KHTML, like Gecko) Chrome/79.0.3945.117 Safari/537.36",Fri Jan 24 2020 10:33:57 GMT-0800 (Pacific Standard Time),EH131116869,A22MLUGAGF4S73,3N5YJ55YXI75KX5J07FEHLLQXVQANX,3L2IS5HSFDMRMQHBWE2766S6O7TNUE,Fri Jan 24 2020 10:38:09 GMT-0800 (Pacific Standard Time),252348,"{""shirt_AC"":""Sweater_Green""}",[0]
4719,NA,test_trial,survey-multi-choice,7,76629,0.0-7.0,A22MLUGAGF4S73,"Mozilla/5.0 (Windows NT 6.3; Win64; x64) AppleWebKit/537.36 (KHTML, like Gecko) Chrome/79.0.3945.117 Safari/537.36",Fri Jan 24 2020 10:33:57 GMT-0800 (Pacific Standard Time),EH131116869,A22MLUGAGF4S73,3N5YJ55YXI75KX5J07FEHLLQXVQANX,3L2IS5HSFDMRMQHBWE2766S6O7TNUE,Fri Jan 24 2020 10:38:09 GMT-0800 (Pacific Standard Time),252348,"{""Test_ConditionName"":""colors10""}",[0]
4255,NA,test_trial,survey-multi-choice,8,80884,0.0-8.0,A22MLUGAGF4S73,"Mozilla/5.0 (Windows NT 6.3; Win64; x64) AppleWebKit/537.36 (KHTML, like Gecko) Chrome/79.0.3945.117 Safari/537.36",Fri Jan 24 2020 10:33:57 GMT-0800 (Pacific Standard Time),EH131116869,A22MLUGAGF4S73,3N5YJ55YXI75KX5J07FEHLLQXVQANX,3L2IS5HSFDMRMQHBWE2766S6O7TNUE,Fri Jan 24 2020 10:38:09 GMT-0800 (Pacific Standard Time),252348,"{""Test_ConditionName"":""colors2""}",[0]
5190,NA,test_trial,survey-multi-choice,9,86074,0.0-9.0,A22MLUGAGF4S73,"Mozilla/5.0 (Windows NT 6.3; Win64; x64) AppleWebKit/537.36 (KHTML, like Gecko) Chrome/79.0.3945.117 Safari/537.36",Fri Jan 24 2020 10:33:57 GMT-0800 (Pacific Standard Time),EH131116869,A22MLUGAGF4S73,3N5YJ55YXI75KX5J07FEHLLQXVQANX,3L2IS5HSFDMRMQHBWE2766S6O7TNUE,Fri Jan 24 2020 10:38:09 GMT-0800 (Pacific Standard Time),252348,"{""Test_ConditionName"":""colors2""}",[0]
3794,NA,test_trial,survey-multi-choice,10,89881,0.0-10.0,A22MLUGAGF4S73,"Mozilla/5.0 (Windows NT 6.3; Win64; x64) AppleWebKit/537.36 (KHTML, like Gecko) Chrome/79.0.3945.117 Safari/537.36",Fri Jan 24 2020 10:33:57 GMT-0800 (Pacific Standard Time),EH131116869,A22MLUGAGF4S73,3N5YJ55YXI75KX5J07FEHLLQXVQANX,3L2IS5HSFDMRMQHBWE2766S6O7TNUE,Fri Jan 24 2020 10:38:09 GMT-0800 (Pacific Standard Time),252348,"{""Test_ConditionName"":""exemplars2""}",[0]
5242,NA,attentionCheck,survey-multi-choice,11,95131,0.0-11.0,A22MLUGAGF4S73,"Mozilla/5.0 (Windows NT 6.3; Win64; x64) AppleWebKit/537.36 (KHTML, like Gecko) Chrome/79.0.3945.117 Safari/537.36",Fri Jan 24 2020 10:33:57 GMT-0800 (Pacific Standard Time),EH131116869,A22MLUGAGF4S73,3N5YJ55YXI75KX5J07FEHLLQXVQANX,3L2IS5HSFDMRMQHBWE2766S6O7TNUE,Fri Jan 24 2020 10:38:09 GMT-0800 (Pacific Standard Time),252348,"{""hat_AC"":""Dundee""}",[0]
4322,NA,test_trial,survey-multi-choice,12,99460,0.0-12.0,A22MLUGAGF4S73,"Mozilla/5.0 (Windows NT 6.3; Win64; x64) AppleWebKit/537.36 (KHTML, like Gecko) Chrome/79.0.3945.117 Safari/537.36",Fri Jan 24 2020 10:33:57 GMT-0800 (Pacific Standard Time),EH131116869,A22MLUGAGF4S73,3N5YJ55YXI75KX5J07FEHLLQXVQANX,3L2IS5HSFDMRMQHBWE2766S6O7TNUE,Fri Jan 24 2020 10:38:09 GMT-0800 (Pacific Standard Time),252348,"{""Test_ConditionName"":""colors10""}",[0]
5393,NA,test_trial,survey-multi-choice,13,104860,0.0-13.0,A22MLUGAGF4S73,"Mozilla/5.0 (Windows NT 6.3; Win64; x64) AppleWebKit/537.36 (KHTML, like Gecko) Chrome/79.0.3945.117 Safari/537.36",Fri Jan 24 2020 10:33:57 GMT-0800 (Pacific Standard Time),EH131116869,A22MLUGAGF4S73,3N5YJ55YXI75KX5J07FEHLLQXVQANX,3L2IS5HSFDMRMQHBWE2766S6O7TNUE,Fri Jan 24 2020 10:38:09 GMT-0800 (Pacific Standard Time),252348,"{""Test_ConditionName"":""exemplars2""}",[0]
4232,NA,test_trial,survey-multi-choice,14,109115,0.0-14.0,A22MLUGAGF4S73,"Mozilla/5.0 (Windows NT 6.3; Win64; x64) AppleWebKit/537.36 (KHTML, like Gecko) Chrome/79.0.3945.117 Safari/537.36",Fri Jan 24 2020 10:33:57 GMT-0800 (Pacific Standard Time),EH131116869,A22MLUGAGF4S73,3N5YJ55YXI75KX5J07FEHLLQXVQANX,3L2IS5HSFDMRMQHBWE2766S6O7TNUE,Fri Jan 24 2020 10:38:09 GMT-0800 (Pacific Standard Time),252348,"{""Test_ConditionName"":""exemplars10""}",[0]
3723,NA,test_trial,survey-multi-choice,15,112849,0.0-15.0,A22MLUGAGF4S73,"Mozilla/5.0 (Windows NT 6.3; Win64; x64) AppleWebKit/537.36 (KHTML, like Gecko) Chrome/79.0.3945.117 Safari/537.36",Fri Jan 24 2020 10:33:57 GMT-0800 (Pacific Standard Time),EH131116869,A22MLUGAGF4S73,3N5YJ55YXI75KX5J07FEHLLQXVQANX,3L2IS5HSFDMRMQHBWE2766S6O7TNUE,Fri Jan 24 2020 10:38:09 GMT-0800 (Pacific Standard Time),252348,"{""Test_ConditionName"":""colors2""}",[0]
2903,NA,attentionCheck,survey-multi-choice,16,115760,0.0-16.0,A22MLUGAGF4S73,"Mozilla/5.0 (Windows NT 6.3; Win64; x64) AppleWebKit/537.36 (KHTML, like Gecko) Chrome/79.0.3945.117 Safari/537.36",Fri Jan 24 2020 10:33:57 GMT-0800 (Pacific Standard Time),EH131116869,A22MLUGAGF4S73,3N5YJ55YXI75KX5J07FEHLLQXVQANX,3L2IS5HSFDMRMQHBWE2766S6O7TNUE,Fri Jan 24 2020 10:38:09 GMT-0800 (Pacific Standard Time),252348,"{""writing_AC"":""Crayon1""}",[0]
2215,NA,test_trial,survey-multi-choice,17,117983,0.0-17.0,A22MLUGAGF4S73,"Mozilla/5.0 (Windows NT 6.3; Win64; x64) AppleWebKit/537.36 (KHTML, like Gecko) Chrome/79.0.3945.117 Safari/537.36",Fri Jan 24 2020 10:33:57 GMT-0800 (Pacific Standard Time),EH131116869,A22MLUGAGF4S73,3N5YJ55YXI75KX5J07FEHLLQXVQANX,3L2IS5HSFDMRMQHBWE2766S6O7TNUE,Fri Jan 24 2020 10:38:09 GMT-0800 (Pacific Standard Time),252348,"{""Test_ConditionName"":""exemplars2""}",[0]
4643,NA,test_trial,survey-multi-choice,18,122632,0.0-18.0,A22MLUGAGF4S73,"Mozilla/5.0 (Windows NT 6.3; Win64; x64) AppleWebKit/537.36 (KHTML, like Gecko) Chrome/79.0.3945.117 Safari/537.36",Fri Jan 24 2020 10:33:57 GMT-0800 (Pacific Standard Time),EH131116869,A22MLUGAGF4S73,3N5YJ55YXI75KX5J07FEHLLQXVQANX,3L2IS5HSFDMRMQHBWE2766S6O7TNUE,Fri Jan 24 2020 10:38:09 GMT-0800 (Pacific Standard Time),252348,"{""Test_ConditionName"":""colors2""}",[0]
2829,NA,test_trial,survey-multi-choice,19,125477,0.0-19.0,A22MLUGAGF4S73,"Mozilla/5.0 (Windows NT 6.3; Win64; x64) AppleWebKit/537.36 (KHTML, like Gecko) Chrome/79.0.3945.117 Safari/537.36",Fri Jan 24 2020 10:33:57 GMT-0800 (Pacific Standard Time),EH131116869,A22MLUGAGF4S73,3N5YJ55YXI75KX5J07FEHLLQXVQANX,3L2IS5HSFDMRMQHBWE2766S6O7TNUE,Fri Jan 24 2020 10:38:09 GMT-0800 (Pacific Standard Time),252348,"{""Test_ConditionName"":""exemplars10""}",[0]
3803,NA,test_trial,survey-multi-choice,20,129291,0.0-20.0,A22MLUGAGF4S73,"Mozilla/5.0 (Windows NT 6.3; Win64; x64) AppleWebKit/537.36 (KHTML, like Gecko) Chrome/79.0.3945.117 Safari/537.36",Fri Jan 24 2020 10:33:57 GMT-0800 (Pacific Standard Time),EH131116869,A22MLUGAGF4S73,3N5YJ55YXI75KX5J07FEHLLQXVQANX,3L2IS5HSFDMRMQHBWE2766S6O7TNUE,Fri Jan 24 2020 10:38:09 GMT-0800 (Pacific Standard Time),252348,"{""Test_ConditionName"":""exemplars10""}",[0]
3260,NA,attentionCheck,survey-multi-choice,21,132557,0.0-21.0,A22MLUGAGF4S73,"Mozilla/5.0 (Windows NT 6.3; Win64; x64) AppleWebKit/537.36 (KHTML, like Gecko) Chrome/79.0.3945.117 Safari/537.36",Fri Jan 24 2020 10:33:57 GMT-0800 (Pacific Standard Time),EH131116869,A22MLUGAGF4S73,3N5YJ55YXI75KX5J07FEHLLQXVQANX,3L2IS5HSFDMRMQHBWE2766S6O7TNUE,Fri Jan 24 2020 10:38:09 GMT-0800 (Pacific Standard Time),252348,"{""chair_AC"":""Stool_New_Orange""}",[0]
28191,NA,demographics,survey-multi-choice,22,160772,0.0-22.0,A22MLUGAGF4S73,"Mozilla/5.0 (Windows NT 6.3; Win64; x64) AppleWebKit/537.36 (KHTML, like Gecko) Chrome/79.0.3945.117 Safari/537.36",Fri Jan 24 2020 10:33:57 GMT-0800 (Pacific Standard Time),EH131116869,A22MLUGAGF4S73,3N5YJ55YXI75KX5J07FEHLLQXVQANX,3L2IS5HSFDMRMQHBWE2766S6O7TNUE,Fri Jan 24 2020 10:38:09 GMT-0800 (Pacific Standard Time),252348,"{""Demo_Colorblind"":""Colorblind"",""Demo_Gender"":""Male"",""Demo_Race"":""Black"",""Demo_Hispanic"":""Hispanic""}","[0,1,2,3]"
91519,NA,demographics,survey-text,23,252315,0.0-23.0,A22MLUGAGF4S73,"Mozilla/5.0 (Windows NT 6.3; Win64; x64) AppleWebKit/537.36 (KHTML, like Gecko) Chrome/79.0.3945.117 Safari/537.36",Fri Jan 24 2020 10:33:57 GMT-0800 (Pacific Standard Time),EH131116869,A22MLUGAGF4S73,3N5YJ55YXI75KX5J07FEHLLQXVQANX,3L2IS5HSFDMRMQHBWE2766S6O7TNUE,Fri Jan 24 2020 10:38:09 GMT-0800 (Pacific Standard Time),252348,"{""Age"":""30"",""ParticipationSummary"":""n fact, we like to think of it as a related question to “Tell me about an accomplishment you're proud of.” Why do employers ask this question? It's because they"",""MotivationGuess"":""Students, it's vital that you have a good strategy for answering multiple choice ... Preparation means spending enough time studying and it means studying the right ... If you are surprised by the answers given, you want to double check that you ... Make sure that the answers you're given match the question you think you've ..."",""TechnicalIssues"":""Some things that you can do to increase participation are described in the section ... on what is the best architecture or technical solution to any given problem.""}",NA
4334,0,consent,html-button-response,0,4402,0.0-0.0,A1ZE87WEYCA44A,"Mozilla/5.0 (Windows NT 6.1) AppleWebKit/537.36 (KHTML, like Gecko) Chrome/79.0.3945.130 Safari/537.36",Fri Jan 24 2020 16:11:21 GMT-0500 (Eastern Standard Time),EH1371122669,A1ZE87WEYCA44A,3MIVREZQVJ2WZ7RXSQKKFTJR7JOKQS,3VP0C6EFSJ002X6AOVP4DLPQGWNM6Z,Fri Jan 24 2020 16:17:08 GMT-0500 (Eastern Standard Time),347294,NA,NA
49835,0,instructions,html-button-response,1,54240,0.0-1.0,A1ZE87WEYCA44A,"Mozilla/5.0 (Windows NT 6.1) AppleWebKit/537.36 (KHTML, like Gecko) Chrome/79.0.3945.130 Safari/537.36",Fri Jan 24 2020 16:11:21 GMT-0500 (Eastern Standard Time),EH1371122669,A1ZE87WEYCA44A,3MIVREZQVJ2WZ7RXSQKKFTJR7JOKQS,3VP0C6EFSJ002X6AOVP4DLPQGWNM6Z,Fri Jan 24 2020 16:17:08 GMT-0500 (Eastern Standard Time),347294,NA,NA
8469,NA,test_trial,survey-multi-choice,2,62713,0.0-2.0,A1ZE87WEYCA44A,"Mozilla/5.0 (Windows NT 6.1) AppleWebKit/537.36 (KHTML, like Gecko) Chrome/79.0.3945.130 Safari/537.36",Fri Jan 24 2020 16:11:21 GMT-0500 (Eastern Standard Time),EH1371122669,A1ZE87WEYCA44A,3MIVREZQVJ2WZ7RXSQKKFTJR7JOKQS,3VP0C6EFSJ002X6AOVP4DLPQGWNM6Z,Fri Jan 24 2020 16:17:08 GMT-0500 (Eastern Standard Time),347294,"{""Test_ConditionName"":""colors10""}",[0]
6597,NA,test_trial,survey-multi-choice,3,69314,0.0-3.0,A1ZE87WEYCA44A,"Mozilla/5.0 (Windows NT 6.1) AppleWebKit/537.36 (KHTML, like Gecko) Chrome/79.0.3945.130 Safari/537.36",Fri Jan 24 2020 16:11:21 GMT-0500 (Eastern Standard Time),EH1371122669,A1ZE87WEYCA44A,3MIVREZQVJ2WZ7RXSQKKFTJR7JOKQS,3VP0C6EFSJ002X6AOVP4DLPQGWNM6Z,Fri Jan 24 2020 16:17:08 GMT-0500 (Eastern Standard Time),347294,"{""Test_ConditionName"":""exemplars2""}",[0]
5754,NA,test_trial,survey-multi-choice,4,75073,0.0-4.0,A1ZE87WEYCA44A,"Mozilla/5.0 (Windows NT 6.1) AppleWebKit/537.36 (KHTML, like Gecko) Chrome/79.0.3945.130 Safari/537.36",Fri Jan 24 2020 16:11:21 GMT-0500 (Eastern Standard Time),EH1371122669,A1ZE87WEYCA44A,3MIVREZQVJ2WZ7RXSQKKFTJR7JOKQS,3VP0C6EFSJ002X6AOVP4DLPQGWNM6Z,Fri Jan 24 2020 16:17:08 GMT-0500 (Eastern Standard Time),347294,"{""Test_ConditionName"":""exemplars10""}",[0]
4244,NA,test_trial,survey-multi-choice,5,79321,0.0-5.0,A1ZE87WEYCA44A,"Mozilla/5.0 (Windows NT 6.1) AppleWebKit/537.36 (KHTML, like Gecko) Chrome/79.0.3945.130 Safari/537.36",Fri Jan 24 2020 16:11:21 GMT-0500 (Eastern Standard Time),EH1371122669,A1ZE87WEYCA44A,3MIVREZQVJ2WZ7RXSQKKFTJR7JOKQS,3VP0C6EFSJ002X6AOVP4DLPQGWNM6Z,Fri Jan 24 2020 16:17:08 GMT-0500 (Eastern Standard Time),347294,"{""Test_ConditionName"":""exemplars10""}",[0]
4771,NA,attentionCheck,survey-multi-choice,6,84096,0.0-6.0,A1ZE87WEYCA44A,"Mozilla/5.0 (Windows NT 6.1) AppleWebKit/537.36 (KHTML, like Gecko) Chrome/79.0.3945.130 Safari/537.36",Fri Jan 24 2020 16:11:21 GMT-0500 (Eastern Standard Time),EH1371122669,A1ZE87WEYCA44A,3MIVREZQVJ2WZ7RXSQKKFTJR7JOKQS,3VP0C6EFSJ002X6AOVP4DLPQGWNM6Z,Fri Jan 24 2020 16:17:08 GMT-0500 (Eastern Standard Time),347294,"{""writing_AC"":""Pencil4""}",[0]
6894,NA,test_trial,survey-multi-choice,7,90993,0.0-7.0,A1ZE87WEYCA44A,"Mozilla/5.0 (Windows NT 6.1) AppleWebKit/537.36 (KHTML, like Gecko) Chrome/79.0.3945.130 Safari/537.36",Fri Jan 24 2020 16:11:21 GMT-0500 (Eastern Standard Time),EH1371122669,A1ZE87WEYCA44A,3MIVREZQVJ2WZ7RXSQKKFTJR7JOKQS,3VP0C6EFSJ002X6AOVP4DLPQGWNM6Z,Fri Jan 24 2020 16:17:08 GMT-0500 (Eastern Standard Time),347294,"{""Test_ConditionName"":""exemplars10""}",[0]
4388,NA,test_trial,survey-multi-choice,8,95385,0.0-8.0,A1ZE87WEYCA44A,"Mozilla/5.0 (Windows NT 6.1) AppleWebKit/537.36 (KHTML, like Gecko) Chrome/79.0.3945.130 Safari/537.36",Fri Jan 24 2020 16:11:21 GMT-0500 (Eastern Standard Time),EH1371122669,A1ZE87WEYCA44A,3MIVREZQVJ2WZ7RXSQKKFTJR7JOKQS,3VP0C6EFSJ002X6AOVP4DLPQGWNM6Z,Fri Jan 24 2020 16:17:08 GMT-0500 (Eastern Standard Time),347294,"{""Test_ConditionName"":""exemplars2""}",[0]
4076,NA,test_trial,survey-multi-choice,9,99465,0.0-9.0,A1ZE87WEYCA44A,"Mozilla/5.0 (Windows NT 6.1) AppleWebKit/537.36 (KHTML, like Gecko) Chrome/79.0.3945.130 Safari/537.36",Fri Jan 24 2020 16:11:21 GMT-0500 (Eastern Standard Time),EH1371122669,A1ZE87WEYCA44A,3MIVREZQVJ2WZ7RXSQKKFTJR7JOKQS,3VP0C6EFSJ002X6AOVP4DLPQGWNM6Z,Fri Jan 24 2020 16:17:08 GMT-0500 (Eastern Standard Time),347294,"{""Test_ConditionName"":""colors10""}",[0]
5754,NA,test_trial,survey-multi-choice,10,105225,0.0-10.0,A1ZE87WEYCA44A,"Mozilla/5.0 (Windows NT 6.1) AppleWebKit/537.36 (KHTML, like Gecko) Chrome/79.0.3945.130 Safari/537.36",Fri Jan 24 2020 16:11:21 GMT-0500 (Eastern Standard Time),EH1371122669,A1ZE87WEYCA44A,3MIVREZQVJ2WZ7RXSQKKFTJR7JOKQS,3VP0C6EFSJ002X6AOVP4DLPQGWNM6Z,Fri Jan 24 2020 16:17:08 GMT-0500 (Eastern Standard Time),347294,"{""Test_ConditionName"":""exemplars10""}",[0]
3645,NA,attentionCheck,survey-multi-choice,11,108873,0.0-11.0,A1ZE87WEYCA44A,"Mozilla/5.0 (Windows NT 6.1) AppleWebKit/537.36 (KHTML, like Gecko) Chrome/79.0.3945.130 Safari/537.36",Fri Jan 24 2020 16:11:21 GMT-0500 (Eastern Standard Time),EH1371122669,A1ZE87WEYCA44A,3MIVREZQVJ2WZ7RXSQKKFTJR7JOKQS,3VP0C6EFSJ002X6AOVP4DLPQGWNM6Z,Fri Jan 24 2020 16:17:08 GMT-0500 (Eastern Standard Time),347294,"{""chair_AC"":""Chair_Red""}",[0]
4853,NA,test_trial,survey-multi-choice,12,113729,0.0-12.0,A1ZE87WEYCA44A,"Mozilla/5.0 (Windows NT 6.1) AppleWebKit/537.36 (KHTML, like Gecko) Chrome/79.0.3945.130 Safari/537.36",Fri Jan 24 2020 16:11:21 GMT-0500 (Eastern Standard Time),EH1371122669,A1ZE87WEYCA44A,3MIVREZQVJ2WZ7RXSQKKFTJR7JOKQS,3VP0C6EFSJ002X6AOVP4DLPQGWNM6Z,Fri Jan 24 2020 16:17:08 GMT-0500 (Eastern Standard Time),347294,"{""Test_ConditionName"":""exemplars2""}",[0]
3629,NA,test_trial,survey-multi-choice,13,117361,0.0-13.0,A1ZE87WEYCA44A,"Mozilla/5.0 (Windows NT 6.1) AppleWebKit/537.36 (KHTML, like Gecko) Chrome/79.0.3945.130 Safari/537.36",Fri Jan 24 2020 16:11:21 GMT-0500 (Eastern Standard Time),EH1371122669,A1ZE87WEYCA44A,3MIVREZQVJ2WZ7RXSQKKFTJR7JOKQS,3VP0C6EFSJ002X6AOVP4DLPQGWNM6Z,Fri Jan 24 2020 16:17:08 GMT-0500 (Eastern Standard Time),347294,"{""Test_ConditionName"":""colors10""}",[0]
4733,NA,test_trial,survey-multi-choice,14,122097,0.0-14.0,A1ZE87WEYCA44A,"Mozilla/5.0 (Windows NT 6.1) AppleWebKit/537.36 (KHTML, like Gecko) Chrome/79.0.3945.130 Safari/537.36",Fri Jan 24 2020 16:11:21 GMT-0500 (Eastern Standard Time),EH1371122669,A1ZE87WEYCA44A,3MIVREZQVJ2WZ7RXSQKKFTJR7JOKQS,3VP0C6EFSJ002X6AOVP4DLPQGWNM6Z,Fri Jan 24 2020 16:17:08 GMT-0500 (Eastern Standard Time),347294,"{""Test_ConditionName"":""exemplars10""}",[0]
4515,NA,test_trial,survey-multi-choice,15,126617,0.0-15.0,A1ZE87WEYCA44A,"Mozilla/5.0 (Windows NT 6.1) AppleWebKit/537.36 (KHTML, like Gecko) Chrome/79.0.3945.130 Safari/537.36",Fri Jan 24 2020 16:11:21 GMT-0500 (Eastern Standard Time),EH1371122669,A1ZE87WEYCA44A,3MIVREZQVJ2WZ7RXSQKKFTJR7JOKQS,3VP0C6EFSJ002X6AOVP4DLPQGWNM6Z,Fri Jan 24 2020 16:17:08 GMT-0500 (Eastern Standard Time),347294,"{""Test_ConditionName"":""exemplars10""}",[0]
4117,NA,attentionCheck,survey-multi-choice,16,130737,0.0-16.0,A1ZE87WEYCA44A,"Mozilla/5.0 (Windows NT 6.1) AppleWebKit/537.36 (KHTML, like Gecko) Chrome/79.0.3945.130 Safari/537.36",Fri Jan 24 2020 16:11:21 GMT-0500 (Eastern Standard Time),EH1371122669,A1ZE87WEYCA44A,3MIVREZQVJ2WZ7RXSQKKFTJR7JOKQS,3VP0C6EFSJ002X6AOVP4DLPQGWNM6Z,Fri Jan 24 2020 16:17:08 GMT-0500 (Eastern Standard Time),347294,"{""shirt_AC"":""Sweater_Brown""}",[0]
5228,NA,test_trial,survey-multi-choice,17,135968,0.0-17.0,A1ZE87WEYCA44A,"Mozilla/5.0 (Windows NT 6.1) AppleWebKit/537.36 (KHTML, like Gecko) Chrome/79.0.3945.130 Safari/537.36",Fri Jan 24 2020 16:11:21 GMT-0500 (Eastern Standard Time),EH1371122669,A1ZE87WEYCA44A,3MIVREZQVJ2WZ7RXSQKKFTJR7JOKQS,3VP0C6EFSJ002X6AOVP4DLPQGWNM6Z,Fri Jan 24 2020 16:17:08 GMT-0500 (Eastern Standard Time),347294,"{""Test_ConditionName"":""exemplars10""}",[0]
5469,NA,test_trial,survey-multi-choice,18,141441,0.0-18.0,A1ZE87WEYCA44A,"Mozilla/5.0 (Windows NT 6.1) AppleWebKit/537.36 (KHTML, like Gecko) Chrome/79.0.3945.130 Safari/537.36",Fri Jan 24 2020 16:11:21 GMT-0500 (Eastern Standard Time),EH1371122669,A1ZE87WEYCA44A,3MIVREZQVJ2WZ7RXSQKKFTJR7JOKQS,3VP0C6EFSJ002X6AOVP4DLPQGWNM6Z,Fri Jan 24 2020 16:17:08 GMT-0500 (Eastern Standard Time),347294,"{""Test_ConditionName"":""exemplars10""}",[0]
3124,NA,test_trial,survey-multi-choice,19,144569,0.0-19.0,A1ZE87WEYCA44A,"Mozilla/5.0 (Windows NT 6.1) AppleWebKit/537.36 (KHTML, like Gecko) Chrome/79.0.3945.130 Safari/537.36",Fri Jan 24 2020 16:11:21 GMT-0500 (Eastern Standard Time),EH1371122669,A1ZE87WEYCA44A,3MIVREZQVJ2WZ7RXSQKKFTJR7JOKQS,3VP0C6EFSJ002X6AOVP4DLPQGWNM6Z,Fri Jan 24 2020 16:17:08 GMT-0500 (Eastern Standard Time),347294,"{""Test_ConditionName"":""exemplars2""}",[0]
4236,NA,test_trial,survey-multi-choice,20,148808,0.0-20.0,A1ZE87WEYCA44A,"Mozilla/5.0 (Windows NT 6.1) AppleWebKit/537.36 (KHTML, like Gecko) Chrome/79.0.3945.130 Safari/537.36",Fri Jan 24 2020 16:11:21 GMT-0500 (Eastern Standard Time),EH1371122669,A1ZE87WEYCA44A,3MIVREZQVJ2WZ7RXSQKKFTJR7JOKQS,3VP0C6EFSJ002X6AOVP4DLPQGWNM6Z,Fri Jan 24 2020 16:17:08 GMT-0500 (Eastern Standard Time),347294,"{""Test_ConditionName"":""colors10""}",[0]
5525,NA,attentionCheck,survey-multi-choice,21,154336,0.0-21.0,A1ZE87WEYCA44A,"Mozilla/5.0 (Windows NT 6.1) AppleWebKit/537.36 (KHTML, like Gecko) Chrome/79.0.3945.130 Safari/537.36",Fri Jan 24 2020 16:11:21 GMT-0500 (Eastern Standard Time),EH1371122669,A1ZE87WEYCA44A,3MIVREZQVJ2WZ7RXSQKKFTJR7JOKQS,3VP0C6EFSJ002X6AOVP4DLPQGWNM6Z,Fri Jan 24 2020 16:17:08 GMT-0500 (Eastern Standard Time),347294,"{""hat_AC"":""Baseball_Grey""}",[0]
10917,NA,demographics,survey-multi-choice,22,165257,0.0-22.0,A1ZE87WEYCA44A,"Mozilla/5.0 (Windows NT 6.1) AppleWebKit/537.36 (KHTML, like Gecko) Chrome/79.0.3945.130 Safari/537.36",Fri Jan 24 2020 16:11:21 GMT-0500 (Eastern Standard Time),EH1371122669,A1ZE87WEYCA44A,3MIVREZQVJ2WZ7RXSQKKFTJR7JOKQS,3VP0C6EFSJ002X6AOVP4DLPQGWNM6Z,Fri Jan 24 2020 16:17:08 GMT-0500 (Eastern Standard Time),347294,"{""Demo_Colorblind"":""Not-Colorblind"",""Demo_Gender"":""Male"",""Demo_Race"":""White"",""Demo_Hispanic"":""Not-Hispanic""}","[0,1,2,3]"
182018,NA,demographics,survey-text,23,347282,0.0-23.0,A1ZE87WEYCA44A,"Mozilla/5.0 (Windows NT 6.1) AppleWebKit/537.36 (KHTML, like Gecko) Chrome/79.0.3945.130 Safari/537.36",Fri Jan 24 2020 16:11:21 GMT-0500 (Eastern Standard Time),EH1371122669,A1ZE87WEYCA44A,3MIVREZQVJ2WZ7RXSQKKFTJR7JOKQS,3VP0C6EFSJ002X6AOVP4DLPQGWNM6Z,Fri Jan 24 2020 16:17:08 GMT-0500 (Eastern Standard Time),347294,"{""Age"":""54"",""ParticipationSummary"":""Items that a person had to choose between. I had to determine which group of choices would reveal the most about a person."",""MotivationGuess"":""How much does a person's choices tell about their personality"",""TechnicalIssues"":""No""}",NA
2450,0,consent,html-button-response,0,2514,0.0-0.0,A2RCYLKY072XXO,"Mozilla/5.0 (Windows NT 10.0; Win64; x64) AppleWebKit/537.36 (KHTML, like Gecko) Chrome/79.0.3945.130 Safari/537.36",Fri Jan 24 2020 14:54:03 GMT-0500 (Eastern Standard Time),EH151119369,NA,NA,NA,Fri Jan 24 2020 14:56:54 GMT-0500 (Eastern Standard Time),171029,NA,NA
12417,0,instructions,html-button-response,1,14934,0.0-1.0,A2RCYLKY072XXO,"Mozilla/5.0 (Windows NT 10.0; Win64; x64) AppleWebKit/537.36 (KHTML, like Gecko) Chrome/79.0.3945.130 Safari/537.36",Fri Jan 24 2020 14:54:03 GMT-0500 (Eastern Standard Time),EH151119369,NA,NA,NA,Fri Jan 24 2020 14:56:54 GMT-0500 (Eastern Standard Time),171029,NA,NA
8975,NA,test_trial,survey-multi-choice,2,23911,0.0-2.0,A2RCYLKY072XXO,"Mozilla/5.0 (Windows NT 10.0; Win64; x64) AppleWebKit/537.36 (KHTML, like Gecko) Chrome/79.0.3945.130 Safari/537.36",Fri Jan 24 2020 14:54:03 GMT-0500 (Eastern Standard Time),EH151119369,NA,NA,NA,Fri Jan 24 2020 14:56:54 GMT-0500 (Eastern Standard Time),171029,"{""Test_ConditionName"":""exemplars10""}",[0]
4995,NA,test_trial,survey-multi-choice,3,28913,0.0-3.0,A2RCYLKY072XXO,"Mozilla/5.0 (Windows NT 10.0; Win64; x64) AppleWebKit/537.36 (KHTML, like Gecko) Chrome/79.0.3945.130 Safari/537.36",Fri Jan 24 2020 14:54:03 GMT-0500 (Eastern Standard Time),EH151119369,NA,NA,NA,Fri Jan 24 2020 14:56:54 GMT-0500 (Eastern Standard Time),171029,"{""Test_ConditionName"":""exemplars10""}",[0]
4165,NA,test_trial,survey-multi-choice,4,33082,0.0-4.0,A2RCYLKY072XXO,"Mozilla/5.0 (Windows NT 10.0; Win64; x64) AppleWebKit/537.36 (KHTML, like Gecko) Chrome/79.0.3945.130 Safari/537.36",Fri Jan 24 2020 14:54:03 GMT-0500 (Eastern Standard Time),EH151119369,NA,NA,NA,Fri Jan 24 2020 14:56:54 GMT-0500 (Eastern Standard Time),171029,"{""Test_ConditionName"":""exemplars2""}",[0]
3113,NA,test_trial,survey-multi-choice,5,36198,0.0-5.0,A2RCYLKY072XXO,"Mozilla/5.0 (Windows NT 10.0; Win64; x64) AppleWebKit/537.36 (KHTML, like Gecko) Chrome/79.0.3945.130 Safari/537.36",Fri Jan 24 2020 14:54:03 GMT-0500 (Eastern Standard Time),EH151119369,NA,NA,NA,Fri Jan 24 2020 14:56:54 GMT-0500 (Eastern Standard Time),171029,"{""Test_ConditionName"":""colors10""}",[0]
6606,NA,attentionCheck,survey-multi-choice,6,42806,0.0-6.0,A2RCYLKY072XXO,"Mozilla/5.0 (Windows NT 10.0; Win64; x64) AppleWebKit/537.36 (KHTML, like Gecko) Chrome/79.0.3945.130 Safari/537.36",Fri Jan 24 2020 14:54:03 GMT-0500 (Eastern Standard Time),EH151119369,NA,NA,NA,Fri Jan 24 2020 14:56:54 GMT-0500 (Eastern Standard Time),171029,"{""shirt_AC"":""shirt_test""}",[0]
3769,NA,test_trial,survey-multi-choice,7,46578,0.0-7.0,A2RCYLKY072XXO,"Mozilla/5.0 (Windows NT 10.0; Win64; x64) AppleWebKit/537.36 (KHTML, like Gecko) Chrome/79.0.3945.130 Safari/537.36",Fri Jan 24 2020 14:54:03 GMT-0500 (Eastern Standard Time),EH151119369,NA,NA,NA,Fri Jan 24 2020 14:56:54 GMT-0500 (Eastern Standard Time),171029,"{""Test_ConditionName"":""exemplars10""}",[0]
2895,NA,test_trial,survey-multi-choice,8,49477,0.0-8.0,A2RCYLKY072XXO,"Mozilla/5.0 (Windows NT 10.0; Win64; x64) AppleWebKit/537.36 (KHTML, like Gecko) Chrome/79.0.3945.130 Safari/537.36",Fri Jan 24 2020 14:54:03 GMT-0500 (Eastern Standard Time),EH151119369,NA,NA,NA,Fri Jan 24 2020 14:56:54 GMT-0500 (Eastern Standard Time),171029,"{""Test_ConditionName"":""exemplars2""}",[0]
4204,NA,test_trial,survey-multi-choice,9,53685,0.0-9.0,A2RCYLKY072XXO,"Mozilla/5.0 (Windows NT 10.0; Win64; x64) AppleWebKit/537.36 (KHTML, like Gecko) Chrome/79.0.3945.130 Safari/537.36",Fri Jan 24 2020 14:54:03 GMT-0500 (Eastern Standard Time),EH151119369,NA,NA,NA,Fri Jan 24 2020 14:56:54 GMT-0500 (Eastern Standard Time),171029,"{""Test_ConditionName"":""exemplars10""}",[0]
2232,NA,test_trial,survey-multi-choice,10,55921,0.0-10.0,A2RCYLKY072XXO,"Mozilla/5.0 (Windows NT 10.0; Win64; x64) AppleWebKit/537.36 (KHTML, like Gecko) Chrome/79.0.3945.130 Safari/537.36",Fri Jan 24 2020 14:54:03 GMT-0500 (Eastern Standard Time),EH151119369,NA,NA,NA,Fri Jan 24 2020 14:56:54 GMT-0500 (Eastern Standard Time),171029,"{""Test_ConditionName"":""colors10""}",[0]
4018,NA,attentionCheck,survey-multi-choice,11,59942,0.0-11.0,A2RCYLKY072XXO,"Mozilla/5.0 (Windows NT 10.0; Win64; x64) AppleWebKit/537.36 (KHTML, like Gecko) Chrome/79.0.3945.130 Safari/537.36",Fri Jan 24 2020 14:54:03 GMT-0500 (Eastern Standard Time),EH151119369,NA,NA,NA,Fri Jan 24 2020 14:56:54 GMT-0500 (Eastern Standard Time),171029,"{""chair_AC"":""Recliner2""}",[0]
6921,NA,test_trial,survey-multi-choice,12,66865,0.0-12.0,A2RCYLKY072XXO,"Mozilla/5.0 (Windows NT 10.0; Win64; x64) AppleWebKit/537.36 (KHTML, like Gecko) Chrome/79.0.3945.130 Safari/537.36",Fri Jan 24 2020 14:54:03 GMT-0500 (Eastern Standard Time),EH151119369,NA,NA,NA,Fri Jan 24 2020 14:56:54 GMT-0500 (Eastern Standard Time),171029,"{""Test_ConditionName"":""exemplars10""}",[0]
5277,NA,test_trial,survey-multi-choice,13,72146,0.0-13.0,A2RCYLKY072XXO,"Mozilla/5.0 (Windows NT 10.0; Win64; x64) AppleWebKit/537.36 (KHTML, like Gecko) Chrome/79.0.3945.130 Safari/537.36",Fri Jan 24 2020 14:54:03 GMT-0500 (Eastern Standard Time),EH151119369,NA,NA,NA,Fri Jan 24 2020 14:56:54 GMT-0500 (Eastern Standard Time),171029,"{""Test_ConditionName"":""exemplars10""}",[0]
2696,NA,test_trial,survey-multi-choice,14,74846,0.0-14.0,A2RCYLKY072XXO,"Mozilla/5.0 (Windows NT 10.0; Win64; x64) AppleWebKit/537.36 (KHTML, like Gecko) Chrome/79.0.3945.130 Safari/537.36",Fri Jan 24 2020 14:54:03 GMT-0500 (Eastern Standard Time),EH151119369,NA,NA,NA,Fri Jan 24 2020 14:56:54 GMT-0500 (Eastern Standard Time),171029,"{""Test_ConditionName"":""colors10""}",[0]
2928,NA,test_trial,survey-multi-choice,15,77777,0.0-15.0,A2RCYLKY072XXO,"Mozilla/5.0 (Windows NT 10.0; Win64; x64) AppleWebKit/537.36 (KHTML, like Gecko) Chrome/79.0.3945.130 Safari/537.36",Fri Jan 24 2020 14:54:03 GMT-0500 (Eastern Standard Time),EH151119369,NA,NA,NA,Fri Jan 24 2020 14:56:54 GMT-0500 (Eastern Standard Time),171029,"{""Test_ConditionName"":""exemplars2""}",[0]
2454,NA,attentionCheck,survey-multi-choice,16,80234,0.0-16.0,A2RCYLKY072XXO,"Mozilla/5.0 (Windows NT 10.0; Win64; x64) AppleWebKit/537.36 (KHTML, like Gecko) Chrome/79.0.3945.130 Safari/537.36",Fri Jan 24 2020 14:54:03 GMT-0500 (Eastern Standard Time),EH151119369,NA,NA,NA,Fri Jan 24 2020 14:56:54 GMT-0500 (Eastern Standard Time),171029,"{""writing_AC"":""Pen_Black""}",[0]
5191,NA,test_trial,survey-multi-choice,17,85430,0.0-17.0,A2RCYLKY072XXO,"Mozilla/5.0 (Windows NT 10.0; Win64; x64) AppleWebKit/537.36 (KHTML, like Gecko) Chrome/79.0.3945.130 Safari/537.36",Fri Jan 24 2020 14:54:03 GMT-0500 (Eastern Standard Time),EH151119369,NA,NA,NA,Fri Jan 24 2020 14:56:54 GMT-0500 (Eastern Standard Time),171029,"{""Test_ConditionName"":""exemplars10""}",[0]
2159,NA,test_trial,survey-multi-choice,18,87597,0.0-18.0,A2RCYLKY072XXO,"Mozilla/5.0 (Windows NT 10.0; Win64; x64) AppleWebKit/537.36 (KHTML, like Gecko) Chrome/79.0.3945.130 Safari/537.36",Fri Jan 24 2020 14:54:03 GMT-0500 (Eastern Standard Time),EH151119369,NA,NA,NA,Fri Jan 24 2020 14:56:54 GMT-0500 (Eastern Standard Time),171029,"{""Test_ConditionName"":""colors10""}",[0]
4728,NA,test_trial,survey-multi-choice,19,92329,0.0-19.0,A2RCYLKY072XXO,"Mozilla/5.0 (Windows NT 10.0; Win64; x64) AppleWebKit/537.36 (KHTML, like Gecko) Chrome/79.0.3945.130 Safari/537.36",Fri Jan 24 2020 14:54:03 GMT-0500 (Eastern Standard Time),EH151119369,NA,NA,NA,Fri Jan 24 2020 14:56:54 GMT-0500 (Eastern Standard Time),171029,"{""Test_ConditionName"":""exemplars2""}",[0]
4964,NA,test_trial,survey-multi-choice,20,97298,0.0-20.0,A2RCYLKY072XXO,"Mozilla/5.0 (Windows NT 10.0; Win64; x64) AppleWebKit/537.36 (KHTML, like Gecko) Chrome/79.0.3945.130 Safari/537.36",Fri Jan 24 2020 14:54:03 GMT-0500 (Eastern Standard Time),EH151119369,NA,NA,NA,Fri Jan 24 2020 14:56:54 GMT-0500 (Eastern Standard Time),171029,"{""Test_ConditionName"":""exemplars10""}",[0]
2513,NA,attentionCheck,survey-multi-choice,21,99813,0.0-21.0,A2RCYLKY072XXO,"Mozilla/5.0 (Windows NT 10.0; Win64; x64) AppleWebKit/537.36 (KHTML, like Gecko) Chrome/79.0.3945.130 Safari/537.36",Fri Jan 24 2020 14:54:03 GMT-0500 (Eastern Standard Time),EH151119369,NA,NA,NA,Fri Jan 24 2020 14:56:54 GMT-0500 (Eastern Standard Time),171029,"{""hat_AC"":""Beanie2""}",[0]
8297,NA,demographics,survey-multi-choice,22,108114,0.0-22.0,A2RCYLKY072XXO,"Mozilla/5.0 (Windows NT 10.0; Win64; x64) AppleWebKit/537.36 (KHTML, like Gecko) Chrome/79.0.3945.130 Safari/537.36",Fri Jan 24 2020 14:54:03 GMT-0500 (Eastern Standard Time),EH151119369,NA,NA,NA,Fri Jan 24 2020 14:56:54 GMT-0500 (Eastern Standard Time),171029,"{""Demo_Colorblind"":""Not-Colorblind"",""Demo_Gender"":""Male"",""Demo_Race"":""Asian"",""Demo_Hispanic"":""Not-Hispanic""}","[0,1,2,3]"
62894,NA,demographics,survey-text,23,171015,0.0-23.0,A2RCYLKY072XXO,"Mozilla/5.0 (Windows NT 10.0; Win64; x64) AppleWebKit/537.36 (KHTML, like Gecko) Chrome/79.0.3945.130 Safari/537.36",Fri Jan 24 2020 14:54:03 GMT-0500 (Eastern Standard Time),EH151119369,NA,NA,NA,Fri Jan 24 2020 14:56:54 GMT-0500 (Eastern Standard Time),171029,"{""Age"":""38"",""ParticipationSummary"":""I chose between two options in order to learn more about another participant."",""MotivationGuess"":""revealing personality"",""TechnicalIssues"":""no""}",NA
2046.185,0,consent,html-button-response,0,2085,0.0-0.0,A3QL8ZAD9BKWUF,"Mozilla/5.0 (Windows NT 10.0; Win64; x64) AppleWebKit/537.36 (KHTML, like Gecko) Chrome/79.0.3945.130 Safari/537.36",Fri Jan 24 2020 18:10:34 GMT-0500 (Eastern Standard Time),EH1731121169,A3QL8ZAD9BKWUF,302OLP89D1BMTT8SBH601AREYS5CAC,3RYC5T2D76XZ9J178ZKU5KAHHPCPRY,Fri Jan 24 2020 18:12:59 GMT-0500 (Eastern Standard Time),144445,NA,NA
13718.45,0,instructions,html-button-response,1,15806,0.0-1.0,A3QL8ZAD9BKWUF,"Mozilla/5.0 (Windows NT 10.0; Win64; x64) AppleWebKit/537.36 (KHTML, like Gecko) Chrome/79.0.3945.130 Safari/537.36",Fri Jan 24 2020 18:10:34 GMT-0500 (Eastern Standard Time),EH1731121169,A3QL8ZAD9BKWUF,302OLP89D1BMTT8SBH601AREYS5CAC,3RYC5T2D76XZ9J178ZKU5KAHHPCPRY,Fri Jan 24 2020 18:12:59 GMT-0500 (Eastern Standard Time),144445,NA,NA
7438.795,NA,test_trial,survey-multi-choice,2,23248,0.0-2.0,A3QL8ZAD9BKWUF,"Mozilla/5.0 (Windows NT 10.0; Win64; x64) AppleWebKit/537.36 (KHTML, like Gecko) Chrome/79.0.3945.130 Safari/537.36",Fri Jan 24 2020 18:10:34 GMT-0500 (Eastern Standard Time),EH1731121169,A3QL8ZAD9BKWUF,302OLP89D1BMTT8SBH601AREYS5CAC,3RYC5T2D76XZ9J178ZKU5KAHHPCPRY,Fri Jan 24 2020 18:12:59 GMT-0500 (Eastern Standard Time),144445,"{""Test_ConditionName"":""colors2""}",[0]
6398.305,NA,test_trial,survey-multi-choice,3,29651,0.0-3.0,A3QL8ZAD9BKWUF,"Mozilla/5.0 (Windows NT 10.0; Win64; x64) AppleWebKit/537.36 (KHTML, like Gecko) Chrome/79.0.3945.130 Safari/537.36",Fri Jan 24 2020 18:10:34 GMT-0500 (Eastern Standard Time),EH1731121169,A3QL8ZAD9BKWUF,302OLP89D1BMTT8SBH601AREYS5CAC,3RYC5T2D76XZ9J178ZKU5KAHHPCPRY,Fri Jan 24 2020 18:12:59 GMT-0500 (Eastern Standard Time),144445,"{""Test_ConditionName"":""exemplars10""}",[0]
4182.09,NA,test_trial,survey-multi-choice,4,33837,0.0-4.0,A3QL8ZAD9BKWUF,"Mozilla/5.0 (Windows NT 10.0; Win64; x64) AppleWebKit/537.36 (KHTML, like Gecko) Chrome/79.0.3945.130 Safari/537.36",Fri Jan 24 2020 18:10:34 GMT-0500 (Eastern Standard Time),EH1731121169,A3QL8ZAD9BKWUF,302OLP89D1BMTT8SBH601AREYS5CAC,3RYC5T2D76XZ9J178ZKU5KAHHPCPRY,Fri Jan 24 2020 18:12:59 GMT-0500 (Eastern Standard Time),144445,"{""Test_ConditionName"":""colors10""}",[0]
3758.855,NA,test_trial,survey-multi-choice,5,37599,0.0-5.0,A3QL8ZAD9BKWUF,"Mozilla/5.0 (Windows NT 10.0; Win64; x64) AppleWebKit/537.36 (KHTML, like Gecko) Chrome/79.0.3945.130 Safari/537.36",Fri Jan 24 2020 18:10:34 GMT-0500 (Eastern Standard Time),EH1731121169,A3QL8ZAD9BKWUF,302OLP89D1BMTT8SBH601AREYS5CAC,3RYC5T2D76XZ9J178ZKU5KAHHPCPRY,Fri Jan 24 2020 18:12:59 GMT-0500 (Eastern Standard Time),144445,"{""Test_ConditionName"":""exemplars10""}",[0]
3432.14,NA,attentionCheck,survey-multi-choice,6,41034,0.0-6.0,A3QL8ZAD9BKWUF,"Mozilla/5.0 (Windows NT 10.0; Win64; x64) AppleWebKit/537.36 (KHTML, like Gecko) Chrome/79.0.3945.130 Safari/537.36",Fri Jan 24 2020 18:10:34 GMT-0500 (Eastern Standard Time),EH1731121169,A3QL8ZAD9BKWUF,302OLP89D1BMTT8SBH601AREYS5CAC,3RYC5T2D76XZ9J178ZKU5KAHHPCPRY,Fri Jan 24 2020 18:12:59 GMT-0500 (Eastern Standard Time),144445,"{""writing_AC"":""Marker_Blue""}",[0]
6429.935,NA,test_trial,survey-multi-choice,7,47468,0.0-7.0,A3QL8ZAD9BKWUF,"Mozilla/5.0 (Windows NT 10.0; Win64; x64) AppleWebKit/537.36 (KHTML, like Gecko) Chrome/79.0.3945.130 Safari/537.36",Fri Jan 24 2020 18:10:34 GMT-0500 (Eastern Standard Time),EH1731121169,A3QL8ZAD9BKWUF,302OLP89D1BMTT8SBH601AREYS5CAC,3RYC5T2D76XZ9J178ZKU5KAHHPCPRY,Fri Jan 24 2020 18:12:59 GMT-0500 (Eastern Standard Time),144445,"{""Test_ConditionName"":""exemplars10""}",[0]
2631.885,NA,test_trial,survey-multi-choice,8,50103,0.0-8.0,A3QL8ZAD9BKWUF,"Mozilla/5.0 (Windows NT 10.0; Win64; x64) AppleWebKit/537.36 (KHTML, like Gecko) Chrome/79.0.3945.130 Safari/537.36",Fri Jan 24 2020 18:10:34 GMT-0500 (Eastern Standard Time),EH1731121169,A3QL8ZAD9BKWUF,302OLP89D1BMTT8SBH601AREYS5CAC,3RYC5T2D76XZ9J178ZKU5KAHHPCPRY,Fri Jan 24 2020 18:12:59 GMT-0500 (Eastern Standard Time),144445,"{""Test_ConditionName"":""exemplars2""}",[0]
2103.295,NA,test_trial,survey-multi-choice,9,52209,0.0-9.0,A3QL8ZAD9BKWUF,"Mozilla/5.0 (Windows NT 10.0; Win64; x64) AppleWebKit/537.36 (KHTML, like Gecko) Chrome/79.0.3945.130 Safari/537.36",Fri Jan 24 2020 18:10:34 GMT-0500 (Eastern Standard Time),EH1731121169,A3QL8ZAD9BKWUF,302OLP89D1BMTT8SBH601AREYS5CAC,3RYC5T2D76XZ9J178ZKU5KAHHPCPRY,Fri Jan 24 2020 18:12:59 GMT-0500 (Eastern Standard Time),144445,"{""Test_ConditionName"":""exemplars10""}",[0]
2177.54,NA,test_trial,survey-multi-choice,10,54390,0.0-10.0,A3QL8ZAD9BKWUF,"Mozilla/5.0 (Windows NT 10.0; Win64; x64) AppleWebKit/537.36 (KHTML, like Gecko) Chrome/79.0.3945.130 Safari/537.36",Fri Jan 24 2020 18:10:34 GMT-0500 (Eastern Standard Time),EH1731121169,A3QL8ZAD9BKWUF,302OLP89D1BMTT8SBH601AREYS5CAC,3RYC5T2D76XZ9J178ZKU5KAHHPCPRY,Fri Jan 24 2020 18:12:59 GMT-0500 (Eastern Standard Time),144445,"{""Test_ConditionName"":""colors10""}",[0]
2785.105,NA,attentionCheck,survey-multi-choice,11,57178,0.0-11.0,A3QL8ZAD9BKWUF,"Mozilla/5.0 (Windows NT 10.0; Win64; x64) AppleWebKit/537.36 (KHTML, like Gecko) Chrome/79.0.3945.130 Safari/537.36",Fri Jan 24 2020 18:10:34 GMT-0500 (Eastern Standard Time),EH1731121169,A3QL8ZAD9BKWUF,302OLP89D1BMTT8SBH601AREYS5CAC,3RYC5T2D76XZ9J178ZKU5KAHHPCPRY,Fri Jan 24 2020 18:12:59 GMT-0500 (Eastern Standard Time),144445,"{""hat_AC"":""Baseball_Navy""}",[0]
7017.73,NA,test_trial,survey-multi-choice,12,64198,0.0-12.0,A3QL8ZAD9BKWUF,"Mozilla/5.0 (Windows NT 10.0; Win64; x64) AppleWebKit/537.36 (KHTML, like Gecko) Chrome/79.0.3945.130 Safari/537.36",Fri Jan 24 2020 18:10:34 GMT-0500 (Eastern Standard Time),EH1731121169,A3QL8ZAD9BKWUF,302OLP89D1BMTT8SBH601AREYS5CAC,3RYC5T2D76XZ9J178ZKU5KAHHPCPRY,Fri Jan 24 2020 18:12:59 GMT-0500 (Eastern Standard Time),144445,"{""Test_ConditionName"":""exemplars10""}",[0]
1965.59,NA,test_trial,survey-multi-choice,13,66166,0.0-13.0,A3QL8ZAD9BKWUF,"Mozilla/5.0 (Windows NT 10.0; Win64; x64) AppleWebKit/537.36 (KHTML, like Gecko) Chrome/79.0.3945.130 Safari/537.36",Fri Jan 24 2020 18:10:34 GMT-0500 (Eastern Standard Time),EH1731121169,A3QL8ZAD9BKWUF,302OLP89D1BMTT8SBH601AREYS5CAC,3RYC5T2D76XZ9J178ZKU5KAHHPCPRY,Fri Jan 24 2020 18:12:59 GMT-0500 (Eastern Standard Time),144445,"{""Test_ConditionName"":""colors10""}",[0]
4355.565,NA,test_trial,survey-multi-choice,14,70526,0.0-14.0,A3QL8ZAD9BKWUF,"Mozilla/5.0 (Windows NT 10.0; Win64; x64) AppleWebKit/537.36 (KHTML, like Gecko) Chrome/79.0.3945.130 Safari/537.36",Fri Jan 24 2020 18:10:34 GMT-0500 (Eastern Standard Time),EH1731121169,A3QL8ZAD9BKWUF,302OLP89D1BMTT8SBH601AREYS5CAC,3RYC5T2D76XZ9J178ZKU5KAHHPCPRY,Fri Jan 24 2020 18:12:59 GMT-0500 (Eastern Standard Time),144445,"{""Test_ConditionName"":""exemplars10""}",[0]
3186.975,NA,test_trial,survey-multi-choice,15,73716,0.0-15.0,A3QL8ZAD9BKWUF,"Mozilla/5.0 (Windows NT 10.0; Win64; x64) AppleWebKit/537.36 (KHTML, like Gecko) Chrome/79.0.3945.130 Safari/537.36",Fri Jan 24 2020 18:10:34 GMT-0500 (Eastern Standard Time),EH1731121169,A3QL8ZAD9BKWUF,302OLP89D1BMTT8SBH601AREYS5CAC,3RYC5T2D76XZ9J178ZKU5KAHHPCPRY,Fri Jan 24 2020 18:12:59 GMT-0500 (Eastern Standard Time),144445,"{""Test_ConditionName"":""exemplars2""}",[0]
4990.48,NA,attentionCheck,survey-multi-choice,16,78709,0.0-16.0,A3QL8ZAD9BKWUF,"Mozilla/5.0 (Windows NT 10.0; Win64; x64) AppleWebKit/537.36 (KHTML, like Gecko) Chrome/79.0.3945.130 Safari/537.36",Fri Jan 24 2020 18:10:34 GMT-0500 (Eastern Standard Time),EH1731121169,A3QL8ZAD9BKWUF,302OLP89D1BMTT8SBH601AREYS5CAC,3RYC5T2D76XZ9J178ZKU5KAHHPCPRY,Fri Jan 24 2020 18:12:59 GMT-0500 (Eastern Standard Time),144445,"{""shirt_AC"":""Sweater_Green""}",[0]
3626.675,NA,test_trial,survey-multi-choice,17,82339,0.0-17.0,A3QL8ZAD9BKWUF,"Mozilla/5.0 (Windows NT 10.0; Win64; x64) AppleWebKit/537.36 (KHTML, like Gecko) Chrome/79.0.3945.130 Safari/537.36",Fri Jan 24 2020 18:10:34 GMT-0500 (Eastern Standard Time),EH1731121169,A3QL8ZAD9BKWUF,302OLP89D1BMTT8SBH601AREYS5CAC,3RYC5T2D76XZ9J178ZKU5KAHHPCPRY,Fri Jan 24 2020 18:12:59 GMT-0500 (Eastern Standard Time),144445,"{""Test_ConditionName"":""exemplars10""}",[0]
2111.37,NA,test_trial,survey-multi-choice,18,84454,0.0-18.0,A3QL8ZAD9BKWUF,"Mozilla/5.0 (Windows NT 10.0; Win64; x64) AppleWebKit/537.36 (KHTML, like Gecko) Chrome/79.0.3945.130 Safari/537.36",Fri Jan 24 2020 18:10:34 GMT-0500 (Eastern Standard Time),EH1731121169,A3QL8ZAD9BKWUF,302OLP89D1BMTT8SBH601AREYS5CAC,3RYC5T2D76XZ9J178ZKU5KAHHPCPRY,Fri Jan 24 2020 18:12:59 GMT-0500 (Eastern Standard Time),144445,"{""Test_ConditionName"":""colors10""}",[0]
1475.365,NA,test_trial,survey-multi-choice,19,85934,0.0-19.0,A3QL8ZAD9BKWUF,"Mozilla/5.0 (Windows NT 10.0; Win64; x64) AppleWebKit/537.36 (KHTML, like Gecko) Chrome/79.0.3945.130 Safari/537.36",Fri Jan 24 2020 18:10:34 GMT-0500 (Eastern Standard Time),EH1731121169,A3QL8ZAD9BKWUF,302OLP89D1BMTT8SBH601AREYS5CAC,3RYC5T2D76XZ9J178ZKU5KAHHPCPRY,Fri Jan 24 2020 18:12:59 GMT-0500 (Eastern Standard Time),144445,"{""Test_ConditionName"":""exemplars10""}",[0]
2418.455,NA,test_trial,survey-multi-choice,20,88355,0.0-20.0,A3QL8ZAD9BKWUF,"Mozilla/5.0 (Windows NT 10.0; Win64; x64) AppleWebKit/537.36 (KHTML, like Gecko) Chrome/79.0.3945.130 Safari/537.36",Fri Jan 24 2020 18:10:34 GMT-0500 (Eastern Standard Time),EH1731121169,A3QL8ZAD9BKWUF,302OLP89D1BMTT8SBH601AREYS5CAC,3RYC5T2D76XZ9J178ZKU5KAHHPCPRY,Fri Jan 24 2020 18:12:59 GMT-0500 (Eastern Standard Time),144445,"{""Test_ConditionName"":""exemplars2""}",[0]
4729.295,NA,attentionCheck,survey-multi-choice,21,93087,0.0-21.0,A3QL8ZAD9BKWUF,"Mozilla/5.0 (Windows NT 10.0; Win64; x64) AppleWebKit/537.36 (KHTML, like Gecko) Chrome/79.0.3945.130 Safari/537.36",Fri Jan 24 2020 18:10:34 GMT-0500 (Eastern Standard Time),EH1731121169,A3QL8ZAD9BKWUF,302OLP89D1BMTT8SBH601AREYS5CAC,3RYC5T2D76XZ9J178ZKU5KAHHPCPRY,Fri Jan 24 2020 18:12:59 GMT-0500 (Eastern Standard Time),144445,"{""chair_AC"":""Stool_New_Orange""}",[0]
7297.945,NA,demographics,survey-multi-choice,22,100388,0.0-22.0,A3QL8ZAD9BKWUF,"Mozilla/5.0 (Windows NT 10.0; Win64; x64) AppleWebKit/537.36 (KHTML, like Gecko) Chrome/79.0.3945.130 Safari/537.36",Fri Jan 24 2020 18:10:34 GMT-0500 (Eastern Standard Time),EH1731121169,A3QL8ZAD9BKWUF,302OLP89D1BMTT8SBH601AREYS5CAC,3RYC5T2D76XZ9J178ZKU5KAHHPCPRY,Fri Jan 24 2020 18:12:59 GMT-0500 (Eastern Standard Time),144445,"{""Demo_Colorblind"":""Not-Colorblind"",""Demo_Gender"":""Male"",""Demo_Race"":""White"",""Demo_Hispanic"":""Not-Hispanic""}","[0,1,2,3]"
44044.28,NA,demographics,survey-text,23,144438,0.0-23.0,A3QL8ZAD9BKWUF,"Mozilla/5.0 (Windows NT 10.0; Win64; x64) AppleWebKit/537.36 (KHTML, like Gecko) Chrome/79.0.3945.130 Safari/537.36",Fri Jan 24 2020 18:10:34 GMT-0500 (Eastern Standard Time),EH1731121169,A3QL8ZAD9BKWUF,302OLP89D1BMTT8SBH601AREYS5CAC,3RYC5T2D76XZ9J178ZKU5KAHHPCPRY,Fri Jan 24 2020 18:12:59 GMT-0500 (Eastern Standard Time),144445,"{""Age"":""23"",""ParticipationSummary"":""Just imagine someone picking a card and trying to guess their personality."",""MotivationGuess"":""I guess my thought process on what image i would choose to identify more about the stranger."",""TechnicalIssues"":""No""}",NA
2965.985,0,consent,html-button-response,0,2999,0.0-0.0,A2S3SV1LQTKJ8K,"Mozilla/5.0 (Windows NT 10.0; Win64; x64) AppleWebKit/537.36 (KHTML, like Gecko) Chrome/79.0.3945.117 Safari/537.36",Fri Jan 24 2020 14:12:47 GMT-0500 (Eastern Standard Time),EH1891159469,NA,NA,NA,Fri Jan 24 2020 14:16:48 GMT-0500 (Eastern Standard Time),241634,NA,NA
21483.86,0,instructions,html-button-response,1,24486,0.0-1.0,A2S3SV1LQTKJ8K,"Mozilla/5.0 (Windows NT 10.0; Win64; x64) AppleWebKit/537.36 (KHTML, like Gecko) Chrome/79.0.3945.117 Safari/537.36",Fri Jan 24 2020 14:12:47 GMT-0500 (Eastern Standard Time),EH1891159469,NA,NA,NA,Fri Jan 24 2020 14:16:48 GMT-0500 (Eastern Standard Time),241634,NA,NA
10101.765,NA,test_trial,survey-multi-choice,2,34591,0.0-2.0,A2S3SV1LQTKJ8K,"Mozilla/5.0 (Windows NT 10.0; Win64; x64) AppleWebKit/537.36 (KHTML, like Gecko) Chrome/79.0.3945.117 Safari/537.36",Fri Jan 24 2020 14:12:47 GMT-0500 (Eastern Standard Time),EH1891159469,NA,NA,NA,Fri Jan 24 2020 14:16:48 GMT-0500 (Eastern Standard Time),241634,"{""Test_ConditionName"":""exemplars10""}",[0]
6630.035,NA,test_trial,survey-multi-choice,3,41225,0.0-3.0,A2S3SV1LQTKJ8K,"Mozilla/5.0 (Windows NT 10.0; Win64; x64) AppleWebKit/537.36 (KHTML, like Gecko) Chrome/79.0.3945.117 Safari/537.36",Fri Jan 24 2020 14:12:47 GMT-0500 (Eastern Standard Time),EH1891159469,NA,NA,NA,Fri Jan 24 2020 14:16:48 GMT-0500 (Eastern Standard Time),241634,"{""Test_ConditionName"":""colors10""}",[0]
6371.15,NA,test_trial,survey-multi-choice,4,47599,0.0-4.0,A2S3SV1LQTKJ8K,"Mozilla/5.0 (Windows NT 10.0; Win64; x64) AppleWebKit/537.36 (KHTML, like Gecko) Chrome/79.0.3945.117 Safari/537.36",Fri Jan 24 2020 14:12:47 GMT-0500 (Eastern Standard Time),EH1891159469,NA,NA,NA,Fri Jan 24 2020 14:16:48 GMT-0500 (Eastern Standard Time),241634,"{""Test_ConditionName"":""exemplars2""}",[0]
6049.18,NA,test_trial,survey-multi-choice,5,53651,0.0-5.0,A2S3SV1LQTKJ8K,"Mozilla/5.0 (Windows NT 10.0; Win64; x64) AppleWebKit/537.36 (KHTML, like Gecko) Chrome/79.0.3945.117 Safari/537.36",Fri Jan 24 2020 14:12:47 GMT-0500 (Eastern Standard Time),EH1891159469,NA,NA,NA,Fri Jan 24 2020 14:16:48 GMT-0500 (Eastern Standard Time),241634,"{""Test_ConditionName"":""exemplars10""}",[0]
5812.395,NA,attentionCheck,survey-multi-choice,6,59466,0.0-6.0,A2S3SV1LQTKJ8K,"Mozilla/5.0 (Windows NT 10.0; Win64; x64) AppleWebKit/537.36 (KHTML, like Gecko) Chrome/79.0.3945.117 Safari/537.36",Fri Jan 24 2020 14:12:47 GMT-0500 (Eastern Standard Time),EH1891159469,NA,NA,NA,Fri Jan 24 2020 14:16:48 GMT-0500 (Eastern Standard Time),241634,"{""writing_AC"":""Pen_Pink""}",[0]
5718.695,NA,test_trial,survey-multi-choice,7,65187,0.0-7.0,A2S3SV1LQTKJ8K,"Mozilla/5.0 (Windows NT 10.0; Win64; x64) AppleWebKit/537.36 (KHTML, like Gecko) Chrome/79.0.3945.117 Safari/537.36",Fri Jan 24 2020 14:12:47 GMT-0500 (Eastern Standard Time),EH1891159469,NA,NA,NA,Fri Jan 24 2020 14:16:48 GMT-0500 (Eastern Standard Time),241634,"{""Test_ConditionName"":""exemplars2""}",[0]
4807.76,NA,test_trial,survey-multi-choice,8,69998,0.0-8.0,A2S3SV1LQTKJ8K,"Mozilla/5.0 (Windows NT 10.0; Win64; x64) AppleWebKit/537.36 (KHTML, like Gecko) Chrome/79.0.3945.117 Safari/537.36",Fri Jan 24 2020 14:12:47 GMT-0500 (Eastern Standard Time),EH1891159469,NA,NA,NA,Fri Jan 24 2020 14:16:48 GMT-0500 (Eastern Standard Time),241634,"{""Test_ConditionName"":""exemplars10""}",[0]
4643.61,NA,test_trial,survey-multi-choice,9,74645,0.0-9.0,A2S3SV1LQTKJ8K,"Mozilla/5.0 (Windows NT 10.0; Win64; x64) AppleWebKit/537.36 (KHTML, like Gecko) Chrome/79.0.3945.117 Safari/537.36",Fri Jan 24 2020 14:12:47 GMT-0500 (Eastern Standard Time),EH1891159469,NA,NA,NA,Fri Jan 24 2020 14:16:48 GMT-0500 (Eastern Standard Time),241634,"{""Test_ConditionName"":""colors10""}",[0]
5260.645,NA,test_trial,survey-multi-choice,10,79911,0.0-10.0,A2S3SV1LQTKJ8K,"Mozilla/5.0 (Windows NT 10.0; Win64; x64) AppleWebKit/537.36 (KHTML, like Gecko) Chrome/79.0.3945.117 Safari/537.36",Fri Jan 24 2020 14:12:47 GMT-0500 (Eastern Standard Time),EH1891159469,NA,NA,NA,Fri Jan 24 2020 14:16:48 GMT-0500 (Eastern Standard Time),241634,"{""Test_ConditionName"":""exemplars10""}",[0]
6411.515,NA,attentionCheck,survey-multi-choice,11,86325,0.0-11.0,A2S3SV1LQTKJ8K,"Mozilla/5.0 (Windows NT 10.0; Win64; x64) AppleWebKit/537.36 (KHTML, like Gecko) Chrome/79.0.3945.117 Safari/537.36",Fri Jan 24 2020 14:12:47 GMT-0500 (Eastern Standard Time),EH1891159469,NA,NA,NA,Fri Jan 24 2020 14:16:48 GMT-0500 (Eastern Standard Time),241634,"{""hat_AC"":""Baseball_Green""}",[0]
5511.865,NA,test_trial,survey-multi-choice,12,91839,0.0-12.0,A2S3SV1LQTKJ8K,"Mozilla/5.0 (Windows NT 10.0; Win64; x64) AppleWebKit/537.36 (KHTML, like Gecko) Chrome/79.0.3945.117 Safari/537.36",Fri Jan 24 2020 14:12:47 GMT-0500 (Eastern Standard Time),EH1891159469,NA,NA,NA,Fri Jan 24 2020 14:16:48 GMT-0500 (Eastern Standard Time),241634,"{""Test_ConditionName"":""colors10""}",[0]
5162.525,NA,test_trial,survey-multi-choice,13,97005,0.0-13.0,A2S3SV1LQTKJ8K,"Mozilla/5.0 (Windows NT 10.0; Win64; x64) AppleWebKit/537.36 (KHTML, like Gecko) Chrome/79.0.3945.117 Safari/537.36",Fri Jan 24 2020 14:12:47 GMT-0500 (Eastern Standard Time),EH1891159469,NA,NA,NA,Fri Jan 24 2020 14:16:48 GMT-0500 (Eastern Standard Time),241634,"{""Test_ConditionName"":""exemplars10""}",[0]
4379.84,NA,test_trial,survey-multi-choice,14,101387,0.0-14.0,A2S3SV1LQTKJ8K,"Mozilla/5.0 (Windows NT 10.0; Win64; x64) AppleWebKit/537.36 (KHTML, like Gecko) Chrome/79.0.3945.117 Safari/537.36",Fri Jan 24 2020 14:12:47 GMT-0500 (Eastern Standard Time),EH1891159469,NA,NA,NA,Fri Jan 24 2020 14:16:48 GMT-0500 (Eastern Standard Time),241634,"{""Test_ConditionName"":""exemplars2""}",[0]
5201.095,NA,test_trial,survey-multi-choice,15,106591,0.0-15.0,A2S3SV1LQTKJ8K,"Mozilla/5.0 (Windows NT 10.0; Win64; x64) AppleWebKit/537.36 (KHTML, like Gecko) Chrome/79.0.3945.117 Safari/537.36",Fri Jan 24 2020 14:12:47 GMT-0500 (Eastern Standard Time),EH1891159469,NA,NA,NA,Fri Jan 24 2020 14:16:48 GMT-0500 (Eastern Standard Time),241634,"{""Test_ConditionName"":""exemplars10""}",[0]
4832.33,NA,attentionCheck,survey-multi-choice,16,111426,0.0-16.0,A2S3SV1LQTKJ8K,"Mozilla/5.0 (Windows NT 10.0; Win64; x64) AppleWebKit/537.36 (KHTML, like Gecko) Chrome/79.0.3945.117 Safari/537.36",Fri Jan 24 2020 14:12:47 GMT-0500 (Eastern Standard Time),EH1891159469,NA,NA,NA,Fri Jan 24 2020 14:16:48 GMT-0500 (Eastern Standard Time),241634,"{""chair_AC"":""Chair_Grey""}",[0]
5557.705,NA,test_trial,survey-multi-choice,17,116986,0.0-17.0,A2S3SV1LQTKJ8K,"Mozilla/5.0 (Windows NT 10.0; Win64; x64) AppleWebKit/537.36 (KHTML, like Gecko) Chrome/79.0.3945.117 Safari/537.36",Fri Jan 24 2020 14:12:47 GMT-0500 (Eastern Standard Time),EH1891159469,NA,NA,NA,Fri Jan 24 2020 14:16:48 GMT-0500 (Eastern Standard Time),241634,"{""Test_ConditionName"":""exemplars10""}",[0]
5924.905,NA,test_trial,survey-multi-choice,18,122914,0.0-18.0,A2S3SV1LQTKJ8K,"Mozilla/5.0 (Windows NT 10.0; Win64; x64) AppleWebKit/537.36 (KHTML, like Gecko) Chrome/79.0.3945.117 Safari/537.36",Fri Jan 24 2020 14:12:47 GMT-0500 (Eastern Standard Time),EH1891159469,NA,NA,NA,Fri Jan 24 2020 14:16:48 GMT-0500 (Eastern Standard Time),241634,"{""Test_ConditionName"":""exemplars10""}",[0]
6234.075,NA,test_trial,survey-multi-choice,19,129152,0.0-19.0,A2S3SV1LQTKJ8K,"Mozilla/5.0 (Windows NT 10.0; Win64; x64) AppleWebKit/537.36 (KHTML, like Gecko) Chrome/79.0.3945.117 Safari/537.36",Fri Jan 24 2020 14:12:47 GMT-0500 (Eastern Standard Time),EH1891159469,NA,NA,NA,Fri Jan 24 2020 14:16:48 GMT-0500 (Eastern Standard Time),241634,"{""Test_ConditionName"":""colors10""}",[0]
3204.41,NA,test_trial,survey-multi-choice,20,132359,0.0-20.0,A2S3SV1LQTKJ8K,"Mozilla/5.0 (Windows NT 10.0; Win64; x64) AppleWebKit/537.36 (KHTML, like Gecko) Chrome/79.0.3945.117 Safari/537.36",Fri Jan 24 2020 14:12:47 GMT-0500 (Eastern Standard Time),EH1891159469,NA,NA,NA,Fri Jan 24 2020 14:16:48 GMT-0500 (Eastern Standard Time),241634,"{""Test_ConditionName"":""exemplars2""}",[0]
5558.02,NA,attentionCheck,survey-multi-choice,21,137919,0.0-21.0,A2S3SV1LQTKJ8K,"Mozilla/5.0 (Windows NT 10.0; Win64; x64) AppleWebKit/537.36 (KHTML, like Gecko) Chrome/79.0.3945.117 Safari/537.36",Fri Jan 24 2020 14:12:47 GMT-0500 (Eastern Standard Time),EH1891159469,NA,NA,NA,Fri Jan 24 2020 14:16:48 GMT-0500 (Eastern Standard Time),241634,"{""shirt_AC"":""Sweater_Green""}",[0]
7913.38,NA,demographics,survey-multi-choice,22,145835,0.0-22.0,A2S3SV1LQTKJ8K,"Mozilla/5.0 (Windows NT 10.0; Win64; x64) AppleWebKit/537.36 (KHTML, like Gecko) Chrome/79.0.3945.117 Safari/537.36",Fri Jan 24 2020 14:12:47 GMT-0500 (Eastern Standard Time),EH1891159469,NA,NA,NA,Fri Jan 24 2020 14:16:48 GMT-0500 (Eastern Standard Time),241634,"{""Demo_Colorblind"":""Not-Colorblind"",""Demo_Gender"":""Male"",""Demo_Race"":""White"",""Demo_Hispanic"":""Not-Hispanic""}","[0,1,2,3]"
95785.975,NA,demographics,survey-text,23,241628,0.0-23.0,A2S3SV1LQTKJ8K,"Mozilla/5.0 (Windows NT 10.0; Win64; x64) AppleWebKit/537.36 (KHTML, like Gecko) Chrome/79.0.3945.117 Safari/537.36",Fri Jan 24 2020 14:12:47 GMT-0500 (Eastern Standard Time),EH1891159469,NA,NA,NA,Fri Jan 24 2020 14:16:48 GMT-0500 (Eastern Standard Time),241634,"{""Age"":""29"",""ParticipationSummary"":""So far, I had to imagine learning about a stranger. I saw card with different items on them and had to choose which card would be best to learn about a stranger."",""MotivationGuess"":""I think this study was about how people make choice based on different items."",""TechnicalIssues"":""I did not encounter any issues.""}",NA
5119.265,0,consent,html-button-response,0,5189,0.0-0.0,A1U69QDM8UIXZ5,"Mozilla/5.0 (Macintosh; Intel Mac OS X 10_15_2) AppleWebKit/537.36 (KHTML, like Gecko) Chrome/79.0.3945.117 Safari/537.36",Fri Jan 24 2020 15:37:49 GMT-0500 (Eastern Standard Time),EH2001136669,A1U69QDM8UIXZ5,3MIVREZQVJ2WZ7RXSQKKFTJR7JOKQS,3QAPZX2QN7HFHIG2COQ3PB11XOL20O,Fri Jan 24 2020 15:41:58 GMT-0500 (Eastern Standard Time),249471,NA,NA
55232.76,0,instructions,html-button-response,1,60423,0.0-1.0,A1U69QDM8UIXZ5,"Mozilla/5.0 (Macintosh; Intel Mac OS X 10_15_2) AppleWebKit/537.36 (KHTML, like Gecko) Chrome/79.0.3945.117 Safari/537.36",Fri Jan 24 2020 15:37:49 GMT-0500 (Eastern Standard Time),EH2001136669,A1U69QDM8UIXZ5,3MIVREZQVJ2WZ7RXSQKKFTJR7JOKQS,3QAPZX2QN7HFHIG2COQ3PB11XOL20O,Fri Jan 24 2020 15:41:58 GMT-0500 (Eastern Standard Time),249471,NA,NA
10425.36,NA,test_trial,survey-multi-choice,2,70855,0.0-2.0,A1U69QDM8UIXZ5,"Mozilla/5.0 (Macintosh; Intel Mac OS X 10_15_2) AppleWebKit/537.36 (KHTML, like Gecko) Chrome/79.0.3945.117 Safari/537.36",Fri Jan 24 2020 15:37:49 GMT-0500 (Eastern Standard Time),EH2001136669,A1U69QDM8UIXZ5,3MIVREZQVJ2WZ7RXSQKKFTJR7JOKQS,3QAPZX2QN7HFHIG2COQ3PB11XOL20O,Fri Jan 24 2020 15:41:58 GMT-0500 (Eastern Standard Time),249471,"{""Test_ConditionName"":""exemplars2""}",[0]
7589.38,NA,test_trial,survey-multi-choice,3,78446,0.0-3.0,A1U69QDM8UIXZ5,"Mozilla/5.0 (Macintosh; Intel Mac OS X 10_15_2) AppleWebKit/537.36 (KHTML, like Gecko) Chrome/79.0.3945.117 Safari/537.36",Fri Jan 24 2020 15:37:49 GMT-0500 (Eastern Standard Time),EH2001136669,A1U69QDM8UIXZ5,3MIVREZQVJ2WZ7RXSQKKFTJR7JOKQS,3QAPZX2QN7HFHIG2COQ3PB11XOL20O,Fri Jan 24 2020 15:41:58 GMT-0500 (Eastern Standard Time),249471,"{""Test_ConditionName"":""exemplars10""}",[0]
4031.405,NA,test_trial,survey-multi-choice,4,82481,0.0-4.0,A1U69QDM8UIXZ5,"Mozilla/5.0 (Macintosh; Intel Mac OS X 10_15_2) AppleWebKit/537.36 (KHTML, like Gecko) Chrome/79.0.3945.117 Safari/537.36",Fri Jan 24 2020 15:37:49 GMT-0500 (Eastern Standard Time),EH2001136669,A1U69QDM8UIXZ5,3MIVREZQVJ2WZ7RXSQKKFTJR7JOKQS,3QAPZX2QN7HFHIG2COQ3PB11XOL20O,Fri Jan 24 2020 15:41:58 GMT-0500 (Eastern Standard Time),249471,"{""Test_ConditionName"":""exemplars10""}",[0]
3989.245,NA,test_trial,survey-multi-choice,5,86473,0.0-5.0,A1U69QDM8UIXZ5,"Mozilla/5.0 (Macintosh; Intel Mac OS X 10_15_2) AppleWebKit/537.36 (KHTML, like Gecko) Chrome/79.0.3945.117 Safari/537.36",Fri Jan 24 2020 15:37:49 GMT-0500 (Eastern Standard Time),EH2001136669,A1U69QDM8UIXZ5,3MIVREZQVJ2WZ7RXSQKKFTJR7JOKQS,3QAPZX2QN7HFHIG2COQ3PB11XOL20O,Fri Jan 24 2020 15:41:58 GMT-0500 (Eastern Standard Time),249471,"{""Test_ConditionName"":""colors10""}",[0]
6452.745,NA,attentionCheck,survey-multi-choice,6,92927,0.0-6.0,A1U69QDM8UIXZ5,"Mozilla/5.0 (Macintosh; Intel Mac OS X 10_15_2) AppleWebKit/537.36 (KHTML, like Gecko) Chrome/79.0.3945.117 Safari/537.36",Fri Jan 24 2020 15:37:49 GMT-0500 (Eastern Standard Time),EH2001136669,A1U69QDM8UIXZ5,3MIVREZQVJ2WZ7RXSQKKFTJR7JOKQS,3QAPZX2QN7HFHIG2COQ3PB11XOL20O,Fri Jan 24 2020 15:41:58 GMT-0500 (Eastern Standard Time),249471,"{""writing_AC"":""Marker_Blue""}",[0]
4775.685,NA,test_trial,survey-multi-choice,7,97705,0.0-7.0,A1U69QDM8UIXZ5,"Mozilla/5.0 (Macintosh; Intel Mac OS X 10_15_2) AppleWebKit/537.36 (KHTML, like Gecko) Chrome/79.0.3945.117 Safari/537.36",Fri Jan 24 2020 15:37:49 GMT-0500 (Eastern Standard Time),EH2001136669,A1U69QDM8UIXZ5,3MIVREZQVJ2WZ7RXSQKKFTJR7JOKQS,3QAPZX2QN7HFHIG2COQ3PB11XOL20O,Fri Jan 24 2020 15:41:58 GMT-0500 (Eastern Standard Time),249471,"{""Test_ConditionName"":""exemplars2""}",[0]
4330.11,NA,test_trial,survey-multi-choice,8,102037,0.0-8.0,A1U69QDM8UIXZ5,"Mozilla/5.0 (Macintosh; Intel Mac OS X 10_15_2) AppleWebKit/537.36 (KHTML, like Gecko) Chrome/79.0.3945.117 Safari/537.36",Fri Jan 24 2020 15:37:49 GMT-0500 (Eastern Standard Time),EH2001136669,A1U69QDM8UIXZ5,3MIVREZQVJ2WZ7RXSQKKFTJR7JOKQS,3QAPZX2QN7HFHIG2COQ3PB11XOL20O,Fri Jan 24 2020 15:41:58 GMT-0500 (Eastern Standard Time),249471,"{""Test_ConditionName"":""colors10""}",[0]
3427.565,NA,test_trial,survey-multi-choice,9,105468,0.0-9.0,A1U69QDM8UIXZ5,"Mozilla/5.0 (Macintosh; Intel Mac OS X 10_15_2) AppleWebKit/537.36 (KHTML, like Gecko) Chrome/79.0.3945.117 Safari/537.36",Fri Jan 24 2020 15:37:49 GMT-0500 (Eastern Standard Time),EH2001136669,A1U69QDM8UIXZ5,3MIVREZQVJ2WZ7RXSQKKFTJR7JOKQS,3QAPZX2QN7HFHIG2COQ3PB11XOL20O,Fri Jan 24 2020 15:41:58 GMT-0500 (Eastern Standard Time),249471,"{""Test_ConditionName"":""exemplars10""}",[0]
3081.61,NA,test_trial,survey-multi-choice,10,108552,0.0-10.0,A1U69QDM8UIXZ5,"Mozilla/5.0 (Macintosh; Intel Mac OS X 10_15_2) AppleWebKit/537.36 (KHTML, like Gecko) Chrome/79.0.3945.117 Safari/537.36",Fri Jan 24 2020 15:37:49 GMT-0500 (Eastern Standard Time),EH2001136669,A1U69QDM8UIXZ5,3MIVREZQVJ2WZ7RXSQKKFTJR7JOKQS,3QAPZX2QN7HFHIG2COQ3PB11XOL20O,Fri Jan 24 2020 15:41:58 GMT-0500 (Eastern Standard Time),249471,"{""Test_ConditionName"":""exemplars10""}",[0]
4670.93,NA,attentionCheck,survey-multi-choice,11,113225,0.0-11.0,A1U69QDM8UIXZ5,"Mozilla/5.0 (Macintosh; Intel Mac OS X 10_15_2) AppleWebKit/537.36 (KHTML, like Gecko) Chrome/79.0.3945.117 Safari/537.36",Fri Jan 24 2020 15:37:49 GMT-0500 (Eastern Standard Time),EH2001136669,A1U69QDM8UIXZ5,3MIVREZQVJ2WZ7RXSQKKFTJR7JOKQS,3QAPZX2QN7HFHIG2COQ3PB11XOL20O,Fri Jan 24 2020 15:41:58 GMT-0500 (Eastern Standard Time),249471,"{""shirt_AC"":""shirt_test""}",[0]
3464.285,NA,test_trial,survey-multi-choice,12,116691,0.0-12.0,A1U69QDM8UIXZ5,"Mozilla/5.0 (Macintosh; Intel Mac OS X 10_15_2) AppleWebKit/537.36 (KHTML, like Gecko) Chrome/79.0.3945.117 Safari/537.36",Fri Jan 24 2020 15:37:49 GMT-0500 (Eastern Standard Time),EH2001136669,A1U69QDM8UIXZ5,3MIVREZQVJ2WZ7RXSQKKFTJR7JOKQS,3QAPZX2QN7HFHIG2COQ3PB11XOL20O,Fri Jan 24 2020 15:41:58 GMT-0500 (Eastern Standard Time),249471,"{""Test_ConditionName"":""colors10""}",[0]
3393.165,NA,test_trial,survey-multi-choice,13,120087,0.0-13.0,A1U69QDM8UIXZ5,"Mozilla/5.0 (Macintosh; Intel Mac OS X 10_15_2) AppleWebKit/537.36 (KHTML, like Gecko) Chrome/79.0.3945.117 Safari/537.36",Fri Jan 24 2020 15:37:49 GMT-0500 (Eastern Standard Time),EH2001136669,A1U69QDM8UIXZ5,3MIVREZQVJ2WZ7RXSQKKFTJR7JOKQS,3QAPZX2QN7HFHIG2COQ3PB11XOL20O,Fri Jan 24 2020 15:41:58 GMT-0500 (Eastern Standard Time),249471,"{""Test_ConditionName"":""exemplars10""}",[0]
3142.39,NA,test_trial,survey-multi-choice,14,123233,0.0-14.0,A1U69QDM8UIXZ5,"Mozilla/5.0 (Macintosh; Intel Mac OS X 10_15_2) AppleWebKit/537.36 (KHTML, like Gecko) Chrome/79.0.3945.117 Safari/537.36",Fri Jan 24 2020 15:37:49 GMT-0500 (Eastern Standard Time),EH2001136669,A1U69QDM8UIXZ5,3MIVREZQVJ2WZ7RXSQKKFTJR7JOKQS,3QAPZX2QN7HFHIG2COQ3PB11XOL20O,Fri Jan 24 2020 15:41:58 GMT-0500 (Eastern Standard Time),249471,"{""Test_ConditionName"":""exemplars10""}",[0]
3597.92,NA,test_trial,survey-multi-choice,15,126833,0.0-15.0,A1U69QDM8UIXZ5,"Mozilla/5.0 (Macintosh; Intel Mac OS X 10_15_2) AppleWebKit/537.36 (KHTML, like Gecko) Chrome/79.0.3945.117 Safari/537.36",Fri Jan 24 2020 15:37:49 GMT-0500 (Eastern Standard Time),EH2001136669,A1U69QDM8UIXZ5,3MIVREZQVJ2WZ7RXSQKKFTJR7JOKQS,3QAPZX2QN7HFHIG2COQ3PB11XOL20O,Fri Jan 24 2020 15:41:58 GMT-0500 (Eastern Standard Time),249471,"{""Test_ConditionName"":""exemplars2""}",[0]
3867.54,NA,attentionCheck,survey-multi-choice,16,130703,0.0-16.0,A1U69QDM8UIXZ5,"Mozilla/5.0 (Macintosh; Intel Mac OS X 10_15_2) AppleWebKit/537.36 (KHTML, like Gecko) Chrome/79.0.3945.117 Safari/537.36",Fri Jan 24 2020 15:37:49 GMT-0500 (Eastern Standard Time),EH2001136669,A1U69QDM8UIXZ5,3MIVREZQVJ2WZ7RXSQKKFTJR7JOKQS,3QAPZX2QN7HFHIG2COQ3PB11XOL20O,Fri Jan 24 2020 15:41:58 GMT-0500 (Eastern Standard Time),249471,"{""chair_AC"":""Chair_Grey""}",[0]
4358.795,NA,test_trial,survey-multi-choice,17,135064,0.0-17.0,A1U69QDM8UIXZ5,"Mozilla/5.0 (Macintosh; Intel Mac OS X 10_15_2) AppleWebKit/537.36 (KHTML, like Gecko) Chrome/79.0.3945.117 Safari/537.36",Fri Jan 24 2020 15:37:49 GMT-0500 (Eastern Standard Time),EH2001136669,A1U69QDM8UIXZ5,3MIVREZQVJ2WZ7RXSQKKFTJR7JOKQS,3QAPZX2QN7HFHIG2COQ3PB11XOL20O,Fri Jan 24 2020 15:41:58 GMT-0500 (Eastern Standard Time),249471,"{""Test_ConditionName"":""exemplars2""}",[0]
6764.35,NA,test_trial,survey-multi-choice,18,141831,0.0-18.0,A1U69QDM8UIXZ5,"Mozilla/5.0 (Macintosh; Intel Mac OS X 10_15_2) AppleWebKit/537.36 (KHTML, like Gecko) Chrome/79.0.3945.117 Safari/537.36",Fri Jan 24 2020 15:37:49 GMT-0500 (Eastern Standard Time),EH2001136669,A1U69QDM8UIXZ5,3MIVREZQVJ2WZ7RXSQKKFTJR7JOKQS,3QAPZX2QN7HFHIG2COQ3PB11XOL20O,Fri Jan 24 2020 15:41:58 GMT-0500 (Eastern Standard Time),249471,"{""Test_ConditionName"":""colors10""}",[0]
2774.1,NA,test_trial,survey-multi-choice,19,144607,0.0-19.0,A1U69QDM8UIXZ5,"Mozilla/5.0 (Macintosh; Intel Mac OS X 10_15_2) AppleWebKit/537.36 (KHTML, like Gecko) Chrome/79.0.3945.117 Safari/537.36",Fri Jan 24 2020 15:37:49 GMT-0500 (Eastern Standard Time),EH2001136669,A1U69QDM8UIXZ5,3MIVREZQVJ2WZ7RXSQKKFTJR7JOKQS,3QAPZX2QN7HFHIG2COQ3PB11XOL20O,Fri Jan 24 2020 15:41:58 GMT-0500 (Eastern Standard Time),249471,"{""Test_ConditionName"":""exemplars10""}",[0]
3613.47,NA,test_trial,survey-multi-choice,20,148223,0.0-20.0,A1U69QDM8UIXZ5,"Mozilla/5.0 (Macintosh; Intel Mac OS X 10_15_2) AppleWebKit/537.36 (KHTML, like Gecko) Chrome/79.0.3945.117 Safari/537.36",Fri Jan 24 2020 15:37:49 GMT-0500 (Eastern Standard Time),EH2001136669,A1U69QDM8UIXZ5,3MIVREZQVJ2WZ7RXSQKKFTJR7JOKQS,3QAPZX2QN7HFHIG2COQ3PB11XOL20O,Fri Jan 24 2020 15:41:58 GMT-0500 (Eastern Standard Time),249471,"{""Test_ConditionName"":""exemplars10""}",[0]
2676.92,NA,attentionCheck,survey-multi-choice,21,150902,0.0-21.0,A1U69QDM8UIXZ5,"Mozilla/5.0 (Macintosh; Intel Mac OS X 10_15_2) AppleWebKit/537.36 (KHTML, like Gecko) Chrome/79.0.3945.117 Safari/537.36",Fri Jan 24 2020 15:37:49 GMT-0500 (Eastern Standard Time),EH2001136669,A1U69QDM8UIXZ5,3MIVREZQVJ2WZ7RXSQKKFTJR7JOKQS,3QAPZX2QN7HFHIG2COQ3PB11XOL20O,Fri Jan 24 2020 15:41:58 GMT-0500 (Eastern Standard Time),249471,"{""hat_AC"":""Baseball_Red""}",[0]
13137.23,NA,demographics,survey-multi-choice,22,164041,0.0-22.0,A1U69QDM8UIXZ5,"Mozilla/5.0 (Macintosh; Intel Mac OS X 10_15_2) AppleWebKit/537.36 (KHTML, like Gecko) Chrome/79.0.3945.117 Safari/537.36",Fri Jan 24 2020 15:37:49 GMT-0500 (Eastern Standard Time),EH2001136669,A1U69QDM8UIXZ5,3MIVREZQVJ2WZ7RXSQKKFTJR7JOKQS,3QAPZX2QN7HFHIG2COQ3PB11XOL20O,Fri Jan 24 2020 15:41:58 GMT-0500 (Eastern Standard Time),249471,"{""Demo_Colorblind"":""Not-Colorblind"",""Demo_Gender"":""Female"",""Demo_Race"":""White"",""Demo_Hispanic"":""Not-Hispanic""}","[0,1,2,3]"
85422.99,NA,demographics,survey-text,23,249467,0.0-23.0,A1U69QDM8UIXZ5,"Mozilla/5.0 (Macintosh; Intel Mac OS X 10_15_2) AppleWebKit/537.36 (KHTML, like Gecko) Chrome/79.0.3945.117 Safari/537.36",Fri Jan 24 2020 15:37:49 GMT-0500 (Eastern Standard Time),EH2001136669,A1U69QDM8UIXZ5,3MIVREZQVJ2WZ7RXSQKKFTJR7JOKQS,3QAPZX2QN7HFHIG2COQ3PB11XOL20O,Fri Jan 24 2020 15:41:58 GMT-0500 (Eastern Standard Time),249471,"{""Age"":""30"",""ParticipationSummary"":""I saw 2 card with pictures on them of different things, and I had to choose the card that would tell me the most about the person "",""MotivationGuess"":""People's preceptions of others based on their peferences "",""TechnicalIssues"":""no some of the pictures were a little slow in loading ""}",NA
6207.795,0,consent,html-button-response,0,6424,0.0-0.0,A12FTSX85NQ8N9,"Mozilla/5.0 (X11; CrOS armv7l 12105.100.0) AppleWebKit/537.36 (KHTML, like Gecko) Chrome/75.0.3770.144 Safari/537.36",Fri Jan 24 2020 10:52:22 GMT-0600 (Central Standard Time),EH2131151169,A12FTSX85NQ8N9,3VP28W7DUPOUXD0AEBC0Q93Q4P3ZF8,3OS4RQUCRCJ02ZVOYZ2ZTBR9XUJBFV,Fri Jan 24 2020 10:56:06 GMT-0600 (Central Standard Time),223764,NA,NA
35320.54,0,instructions,html-button-response,1,41751,0.0-1.0,A12FTSX85NQ8N9,"Mozilla/5.0 (X11; CrOS armv7l 12105.100.0) AppleWebKit/537.36 (KHTML, like Gecko) Chrome/75.0.3770.144 Safari/537.36",Fri Jan 24 2020 10:52:22 GMT-0600 (Central Standard Time),EH2131151169,A12FTSX85NQ8N9,3VP28W7DUPOUXD0AEBC0Q93Q4P3ZF8,3OS4RQUCRCJ02ZVOYZ2ZTBR9XUJBFV,Fri Jan 24 2020 10:56:06 GMT-0600 (Central Standard Time),223764,NA,NA
10273.7,NA,test_trial,survey-multi-choice,2,52031,0.0-2.0,A12FTSX85NQ8N9,"Mozilla/5.0 (X11; CrOS armv7l 12105.100.0) AppleWebKit/537.36 (KHTML, like Gecko) Chrome/75.0.3770.144 Safari/537.36",Fri Jan 24 2020 10:52:22 GMT-0600 (Central Standard Time),EH2131151169,A12FTSX85NQ8N9,3VP28W7DUPOUXD0AEBC0Q93Q4P3ZF8,3OS4RQUCRCJ02ZVOYZ2ZTBR9XUJBFV,Fri Jan 24 2020 10:56:06 GMT-0600 (Central Standard Time),223764,"{""Test_ConditionName"":""exemplars2""}",[0]
7362.06,NA,test_trial,survey-multi-choice,3,59411,0.0-3.0,A12FTSX85NQ8N9,"Mozilla/5.0 (X11; CrOS armv7l 12105.100.0) AppleWebKit/537.36 (KHTML, like Gecko) Chrome/75.0.3770.144 Safari/537.36",Fri Jan 24 2020 10:52:22 GMT-0600 (Central Standard Time),EH2131151169,A12FTSX85NQ8N9,3VP28W7DUPOUXD0AEBC0Q93Q4P3ZF8,3OS4RQUCRCJ02ZVOYZ2ZTBR9XUJBFV,Fri Jan 24 2020 10:56:06 GMT-0600 (Central Standard Time),223764,"{""Test_ConditionName"":""colors10""}",[0]
4078.81,NA,test_trial,survey-multi-choice,4,63505,0.0-4.0,A12FTSX85NQ8N9,"Mozilla/5.0 (X11; CrOS armv7l 12105.100.0) AppleWebKit/537.36 (KHTML, like Gecko) Chrome/75.0.3770.144 Safari/537.36",Fri Jan 24 2020 10:52:22 GMT-0600 (Central Standard Time),EH2131151169,A12FTSX85NQ8N9,3VP28W7DUPOUXD0AEBC0Q93Q4P3ZF8,3OS4RQUCRCJ02ZVOYZ2ZTBR9XUJBFV,Fri Jan 24 2020 10:56:06 GMT-0600 (Central Standard Time),223764,"{""Test_ConditionName"":""exemplars10""}",[0]
6480.135,NA,test_trial,survey-multi-choice,5,70003,0.0-5.0,A12FTSX85NQ8N9,"Mozilla/5.0 (X11; CrOS armv7l 12105.100.0) AppleWebKit/537.36 (KHTML, like Gecko) Chrome/75.0.3770.144 Safari/537.36",Fri Jan 24 2020 10:52:22 GMT-0600 (Central Standard Time),EH2131151169,A12FTSX85NQ8N9,3VP28W7DUPOUXD0AEBC0Q93Q4P3ZF8,3OS4RQUCRCJ02ZVOYZ2ZTBR9XUJBFV,Fri Jan 24 2020 10:56:06 GMT-0600 (Central Standard Time),223764,"{""Test_ConditionName"":""exemplars10""}",[0]
4589.06,NA,attentionCheck,survey-multi-choice,6,74606,0.0-6.0,A12FTSX85NQ8N9,"Mozilla/5.0 (X11; CrOS armv7l 12105.100.0) AppleWebKit/537.36 (KHTML, like Gecko) Chrome/75.0.3770.144 Safari/537.36",Fri Jan 24 2020 10:52:22 GMT-0600 (Central Standard Time),EH2131151169,A12FTSX85NQ8N9,3VP28W7DUPOUXD0AEBC0Q93Q4P3ZF8,3OS4RQUCRCJ02ZVOYZ2ZTBR9XUJBFV,Fri Jan 24 2020 10:56:06 GMT-0600 (Central Standard Time),223764,"{""writing_AC"":""Pen_Yellow""}",[0]
6496.63,NA,test_trial,survey-multi-choice,7,81118,0.0-7.0,A12FTSX85NQ8N9,"Mozilla/5.0 (X11; CrOS armv7l 12105.100.0) AppleWebKit/537.36 (KHTML, like Gecko) Chrome/75.0.3770.144 Safari/537.36",Fri Jan 24 2020 10:52:22 GMT-0600 (Central Standard Time),EH2131151169,A12FTSX85NQ8N9,3VP28W7DUPOUXD0AEBC0Q93Q4P3ZF8,3OS4RQUCRCJ02ZVOYZ2ZTBR9XUJBFV,Fri Jan 24 2020 10:56:06 GMT-0600 (Central Standard Time),223764,"{""Test_ConditionName"":""exemplars10""}",[0]
3838.5,NA,test_trial,survey-multi-choice,8,84971,0.0-8.0,A12FTSX85NQ8N9,"Mozilla/5.0 (X11; CrOS armv7l 12105.100.0) AppleWebKit/537.36 (KHTML, like Gecko) Chrome/75.0.3770.144 Safari/537.36",Fri Jan 24 2020 10:52:22 GMT-0600 (Central Standard Time),EH2131151169,A12FTSX85NQ8N9,3VP28W7DUPOUXD0AEBC0Q93Q4P3ZF8,3OS4RQUCRCJ02ZVOYZ2ZTBR9XUJBFV,Fri Jan 24 2020 10:56:06 GMT-0600 (Central Standard Time),223764,"{""Test_ConditionName"":""exemplars2""}",[0]
3072.61,NA,test_trial,survey-multi-choice,9,88060,0.0-9.0,A12FTSX85NQ8N9,"Mozilla/5.0 (X11; CrOS armv7l 12105.100.0) AppleWebKit/537.36 (KHTML, like Gecko) Chrome/75.0.3770.144 Safari/537.36",Fri Jan 24 2020 10:52:22 GMT-0600 (Central Standard Time),EH2131151169,A12FTSX85NQ8N9,3VP28W7DUPOUXD0AEBC0Q93Q4P3ZF8,3OS4RQUCRCJ02ZVOYZ2ZTBR9XUJBFV,Fri Jan 24 2020 10:56:06 GMT-0600 (Central Standard Time),223764,"{""Test_ConditionName"":""colors10""}",[0]
3194.12,NA,test_trial,survey-multi-choice,10,91272,0.0-10.0,A12FTSX85NQ8N9,"Mozilla/5.0 (X11; CrOS armv7l 12105.100.0) AppleWebKit/537.36 (KHTML, like Gecko) Chrome/75.0.3770.144 Safari/537.36",Fri Jan 24 2020 10:52:22 GMT-0600 (Central Standard Time),EH2131151169,A12FTSX85NQ8N9,3VP28W7DUPOUXD0AEBC0Q93Q4P3ZF8,3OS4RQUCRCJ02ZVOYZ2ZTBR9XUJBFV,Fri Jan 24 2020 10:56:06 GMT-0600 (Central Standard Time),223764,"{""Test_ConditionName"":""exemplars10""}",[0]
4233.98,NA,attentionCheck,survey-multi-choice,11,95521,0.0-11.0,A12FTSX85NQ8N9,"Mozilla/5.0 (X11; CrOS armv7l 12105.100.0) AppleWebKit/537.36 (KHTML, like Gecko) Chrome/75.0.3770.144 Safari/537.36",Fri Jan 24 2020 10:52:22 GMT-0600 (Central Standard Time),EH2131151169,A12FTSX85NQ8N9,3VP28W7DUPOUXD0AEBC0Q93Q4P3ZF8,3OS4RQUCRCJ02ZVOYZ2ZTBR9XUJBFV,Fri Jan 24 2020 10:56:06 GMT-0600 (Central Standard Time),223764,"{""shirt_AC"":""shirt_test""}",[0]
6163.58,NA,test_trial,survey-multi-choice,12,101699,0.0-12.0,A12FTSX85NQ8N9,"Mozilla/5.0 (X11; CrOS armv7l 12105.100.0) AppleWebKit/537.36 (KHTML, like Gecko) Chrome/75.0.3770.144 Safari/537.36",Fri Jan 24 2020 10:52:22 GMT-0600 (Central Standard Time),EH2131151169,A12FTSX85NQ8N9,3VP28W7DUPOUXD0AEBC0Q93Q4P3ZF8,3OS4RQUCRCJ02ZVOYZ2ZTBR9XUJBFV,Fri Jan 24 2020 10:56:06 GMT-0600 (Central Standard Time),223764,"{""Test_ConditionName"":""colors10""}",[0]
4105.485,NA,test_trial,survey-multi-choice,13,105818,0.0-13.0,A12FTSX85NQ8N9,"Mozilla/5.0 (X11; CrOS armv7l 12105.100.0) AppleWebKit/537.36 (KHTML, like Gecko) Chrome/75.0.3770.144 Safari/537.36",Fri Jan 24 2020 10:52:22 GMT-0600 (Central Standard Time),EH2131151169,A12FTSX85NQ8N9,3VP28W7DUPOUXD0AEBC0Q93Q4P3ZF8,3OS4RQUCRCJ02ZVOYZ2ZTBR9XUJBFV,Fri Jan 24 2020 10:56:06 GMT-0600 (Central Standard Time),223764,"{""Test_ConditionName"":""exemplars10""}",[0]
2842.14,NA,test_trial,survey-multi-choice,14,108676,0.0-14.0,A12FTSX85NQ8N9,"Mozilla/5.0 (X11; CrOS armv7l 12105.100.0) AppleWebKit/537.36 (KHTML, like Gecko) Chrome/75.0.3770.144 Safari/537.36",Fri Jan 24 2020 10:52:22 GMT-0600 (Central Standard Time),EH2131151169,A12FTSX85NQ8N9,3VP28W7DUPOUXD0AEBC0Q93Q4P3ZF8,3OS4RQUCRCJ02ZVOYZ2ZTBR9XUJBFV,Fri Jan 24 2020 10:56:06 GMT-0600 (Central Standard Time),223764,"{""Test_ConditionName"":""exemplars2""}",[0]
5184.165,NA,test_trial,survey-multi-choice,15,113878,0.0-15.0,A12FTSX85NQ8N9,"Mozilla/5.0 (X11; CrOS armv7l 12105.100.0) AppleWebKit/537.36 (KHTML, like Gecko) Chrome/75.0.3770.144 Safari/537.36",Fri Jan 24 2020 10:52:22 GMT-0600 (Central Standard Time),EH2131151169,A12FTSX85NQ8N9,3VP28W7DUPOUXD0AEBC0Q93Q4P3ZF8,3OS4RQUCRCJ02ZVOYZ2ZTBR9XUJBFV,Fri Jan 24 2020 10:56:06 GMT-0600 (Central Standard Time),223764,"{""Test_ConditionName"":""exemplars10""}",[0]
7681.875,NA,attentionCheck,survey-multi-choice,16,121574,0.0-16.0,A12FTSX85NQ8N9,"Mozilla/5.0 (X11; CrOS armv7l 12105.100.0) AppleWebKit/537.36 (KHTML, like Gecko) Chrome/75.0.3770.144 Safari/537.36",Fri Jan 24 2020 10:52:22 GMT-0600 (Central Standard Time),EH2131151169,A12FTSX85NQ8N9,3VP28W7DUPOUXD0AEBC0Q93Q4P3ZF8,3OS4RQUCRCJ02ZVOYZ2ZTBR9XUJBFV,Fri Jan 24 2020 10:56:06 GMT-0600 (Central Standard Time),223764,"{""hat_AC"":""Boat""}",[0]
5013.97,NA,test_trial,survey-multi-choice,17,126605,0.0-17.0,A12FTSX85NQ8N9,"Mozilla/5.0 (X11; CrOS armv7l 12105.100.0) AppleWebKit/537.36 (KHTML, like Gecko) Chrome/75.0.3770.144 Safari/537.36",Fri Jan 24 2020 10:52:22 GMT-0600 (Central Standard Time),EH2131151169,A12FTSX85NQ8N9,3VP28W7DUPOUXD0AEBC0Q93Q4P3ZF8,3OS4RQUCRCJ02ZVOYZ2ZTBR9XUJBFV,Fri Jan 24 2020 10:56:06 GMT-0600 (Central Standard Time),223764,"{""Test_ConditionName"":""exemplars10""}",[0]
2685.855,NA,test_trial,survey-multi-choice,18,129307,0.0-18.0,A12FTSX85NQ8N9,"Mozilla/5.0 (X11; CrOS armv7l 12105.100.0) AppleWebKit/537.36 (KHTML, like Gecko) Chrome/75.0.3770.144 Safari/537.36",Fri Jan 24 2020 10:52:22 GMT-0600 (Central Standard Time),EH2131151169,A12FTSX85NQ8N9,3VP28W7DUPOUXD0AEBC0Q93Q4P3ZF8,3OS4RQUCRCJ02ZVOYZ2ZTBR9XUJBFV,Fri Jan 24 2020 10:56:06 GMT-0600 (Central Standard Time),223764,"{""Test_ConditionName"":""exemplars2""}",[0]
4017.695,NA,test_trial,survey-multi-choice,19,133342,0.0-19.0,A12FTSX85NQ8N9,"Mozilla/5.0 (X11; CrOS armv7l 12105.100.0) AppleWebKit/537.36 (KHTML, like Gecko) Chrome/75.0.3770.144 Safari/537.36",Fri Jan 24 2020 10:52:22 GMT-0600 (Central Standard Time),EH2131151169,A12FTSX85NQ8N9,3VP28W7DUPOUXD0AEBC0Q93Q4P3ZF8,3OS4RQUCRCJ02ZVOYZ2ZTBR9XUJBFV,Fri Jan 24 2020 10:56:06 GMT-0600 (Central Standard Time),223764,"{""Test_ConditionName"":""exemplars10""}",[0]
3479.325,NA,test_trial,survey-multi-choice,20,136837,0.0-20.0,A12FTSX85NQ8N9,"Mozilla/5.0 (X11; CrOS armv7l 12105.100.0) AppleWebKit/537.36 (KHTML, like Gecko) Chrome/75.0.3770.144 Safari/537.36",Fri Jan 24 2020 10:52:22 GMT-0600 (Central Standard Time),EH2131151169,A12FTSX85NQ8N9,3VP28W7DUPOUXD0AEBC0Q93Q4P3ZF8,3OS4RQUCRCJ02ZVOYZ2ZTBR9XUJBFV,Fri Jan 24 2020 10:56:06 GMT-0600 (Central Standard Time),223764,"{""Test_ConditionName"":""colors10""}",[0]
3418.49,NA,attentionCheck,survey-multi-choice,21,140273,0.0-21.0,A12FTSX85NQ8N9,"Mozilla/5.0 (X11; CrOS armv7l 12105.100.0) AppleWebKit/537.36 (KHTML, like Gecko) Chrome/75.0.3770.144 Safari/537.36",Fri Jan 24 2020 10:52:22 GMT-0600 (Central Standard Time),EH2131151169,A12FTSX85NQ8N9,3VP28W7DUPOUXD0AEBC0Q93Q4P3ZF8,3OS4RQUCRCJ02ZVOYZ2ZTBR9XUJBFV,Fri Jan 24 2020 10:56:06 GMT-0600 (Central Standard Time),223764,"{""chair_AC"":""Computer1""}",[0]
12858.3,NA,demographics,survey-multi-choice,22,153153,0.0-22.0,A12FTSX85NQ8N9,"Mozilla/5.0 (X11; CrOS armv7l 12105.100.0) AppleWebKit/537.36 (KHTML, like Gecko) Chrome/75.0.3770.144 Safari/537.36",Fri Jan 24 2020 10:52:22 GMT-0600 (Central Standard Time),EH2131151169,A12FTSX85NQ8N9,3VP28W7DUPOUXD0AEBC0Q93Q4P3ZF8,3OS4RQUCRCJ02ZVOYZ2ZTBR9XUJBFV,Fri Jan 24 2020 10:56:06 GMT-0600 (Central Standard Time),223764,"{""Demo_Colorblind"":""Not-Colorblind"",""Demo_Gender"":""Male"",""Demo_Race"":""White"",""Demo_Hispanic"":""Not-Hispanic""}","[0,1,2,3]"
70558.19,NA,demographics,survey-text,23,223736,0.0-23.0,A12FTSX85NQ8N9,"Mozilla/5.0 (X11; CrOS armv7l 12105.100.0) AppleWebKit/537.36 (KHTML, like Gecko) Chrome/75.0.3770.144 Safari/537.36",Fri Jan 24 2020 10:52:22 GMT-0600 (Central Standard Time),EH2131151169,A12FTSX85NQ8N9,3VP28W7DUPOUXD0AEBC0Q93Q4P3ZF8,3OS4RQUCRCJ02ZVOYZ2ZTBR9XUJBFV,Fri Jan 24 2020 10:56:06 GMT-0600 (Central Standard Time),223764,"{""Age"":""27"",""ParticipationSummary"":""I have seen comparisons of different groupings of items, from pencils, to hats, to clothes, to chairs."",""MotivationGuess"":""How variety helps judgement?"",""TechnicalIssues"":""No difficulties! :)""}",NA
6322.865,0,consent,html-button-response,0,6344,0.0-0.0,AT6LDQNLKTUSE,"Mozilla/5.0 (Windows NT 10.0; Win64; x64) AppleWebKit/537.36 (KHTML, like Gecko) Chrome/79.0.3945.130 Safari/537.36",Fri Jan 24 2020 16:50:51 GMT-0500 (Eastern Standard Time),EH2181146569,AT6LDQNLKTUSE,3HEA4ZVWVFQ4O2NW1BSBFT5IEXA55J,3LRKMWOKB8LCJ3MSGI3VVA4NFWL2ZZ,Fri Jan 24 2020 16:54:01 GMT-0500 (Eastern Standard Time),189056,NA,NA
27008,0,instructions,html-button-response,1,33354,0.0-1.0,AT6LDQNLKTUSE,"Mozilla/5.0 (Windows NT 10.0; Win64; x64) AppleWebKit/537.36 (KHTML, like Gecko) Chrome/79.0.3945.130 Safari/537.36",Fri Jan 24 2020 16:50:51 GMT-0500 (Eastern Standard Time),EH2181146569,AT6LDQNLKTUSE,3HEA4ZVWVFQ4O2NW1BSBFT5IEXA55J,3LRKMWOKB8LCJ3MSGI3VVA4NFWL2ZZ,Fri Jan 24 2020 16:54:01 GMT-0500 (Eastern Standard Time),189056,NA,NA
9312.165,NA,test_trial,survey-multi-choice,2,42668,0.0-2.0,AT6LDQNLKTUSE,"Mozilla/5.0 (Windows NT 10.0; Win64; x64) AppleWebKit/537.36 (KHTML, like Gecko) Chrome/79.0.3945.130 Safari/537.36",Fri Jan 24 2020 16:50:51 GMT-0500 (Eastern Standard Time),EH2181146569,AT6LDQNLKTUSE,3HEA4ZVWVFQ4O2NW1BSBFT5IEXA55J,3LRKMWOKB8LCJ3MSGI3VVA4NFWL2ZZ,Fri Jan 24 2020 16:54:01 GMT-0500 (Eastern Standard Time),189056,"{""Test_ConditionName"":""colors10""}",[0]
6550.56,NA,test_trial,survey-multi-choice,3,49222,0.0-3.0,AT6LDQNLKTUSE,"Mozilla/5.0 (Windows NT 10.0; Win64; x64) AppleWebKit/537.36 (KHTML, like Gecko) Chrome/79.0.3945.130 Safari/537.36",Fri Jan 24 2020 16:50:51 GMT-0500 (Eastern Standard Time),EH2181146569,AT6LDQNLKTUSE,3HEA4ZVWVFQ4O2NW1BSBFT5IEXA55J,3LRKMWOKB8LCJ3MSGI3VVA4NFWL2ZZ,Fri Jan 24 2020 16:54:01 GMT-0500 (Eastern Standard Time),189056,"{""Test_ConditionName"":""exemplars10""}",[0]
13177.725,NA,test_trial,survey-multi-choice,4,62405,0.0-4.0,AT6LDQNLKTUSE,"Mozilla/5.0 (Windows NT 10.0; Win64; x64) AppleWebKit/537.36 (KHTML, like Gecko) Chrome/79.0.3945.130 Safari/537.36",Fri Jan 24 2020 16:50:51 GMT-0500 (Eastern Standard Time),EH2181146569,AT6LDQNLKTUSE,3HEA4ZVWVFQ4O2NW1BSBFT5IEXA55J,3LRKMWOKB8LCJ3MSGI3VVA4NFWL2ZZ,Fri Jan 24 2020 16:54:01 GMT-0500 (Eastern Standard Time),189056,"{""Test_ConditionName"":""exemplars10""}",[0]
9012.255,NA,test_trial,survey-multi-choice,5,71421,0.0-5.0,AT6LDQNLKTUSE,"Mozilla/5.0 (Windows NT 10.0; Win64; x64) AppleWebKit/537.36 (KHTML, like Gecko) Chrome/79.0.3945.130 Safari/537.36",Fri Jan 24 2020 16:50:51 GMT-0500 (Eastern Standard Time),EH2181146569,AT6LDQNLKTUSE,3HEA4ZVWVFQ4O2NW1BSBFT5IEXA55J,3LRKMWOKB8LCJ3MSGI3VVA4NFWL2ZZ,Fri Jan 24 2020 16:54:01 GMT-0500 (Eastern Standard Time),189056,"{""Test_ConditionName"":""exemplars2""}",[0]
6128.355,NA,attentionCheck,survey-multi-choice,6,77552,0.0-6.0,AT6LDQNLKTUSE,"Mozilla/5.0 (Windows NT 10.0; Win64; x64) AppleWebKit/537.36 (KHTML, like Gecko) Chrome/79.0.3945.130 Safari/537.36",Fri Jan 24 2020 16:50:51 GMT-0500 (Eastern Standard Time),EH2181146569,AT6LDQNLKTUSE,3HEA4ZVWVFQ4O2NW1BSBFT5IEXA55J,3LRKMWOKB8LCJ3MSGI3VVA4NFWL2ZZ,Fri Jan 24 2020 16:54:01 GMT-0500 (Eastern Standard Time),189056,"{""writing_AC"":""Pencil4""}",[0]
